[{"taskStarted":true,"userId":"524d2272-d17f-42aa-b335-772a7ac10972","dateTime":"2021-11-10T16:12:39.042Z","isRelevant":false},{"internal_node_id":"0.0-0.0-1.0","rt":115887,"question_order":[0,1,2,3,4,5,6,7],"response":{"Q1":"No","Q2":"No","Q3":"Yes","Q4":"No","Q5":"No","Q6":"No","Q7":"No","Q0":"6"},"trial_type":"survey-multi-choice","time_elapsed":115896,"trial_index":0,"userId":"524d2272-d17f-42aa-b335-772a7ac10972","dateTime":"2021-11-10T16:14:34.939Z","isRelevant":true},{"ua":"Mozilla/5.0 (Macintosh; Intel Mac OS X 10.15; rv:94.0) Gecko/20100101 Firefox/94.0","userId":"524d2272-d17f-42aa-b335-772a7ac10972","dateTime":"2021-11-10T16:14:34.943Z","isRelevant":false},{"taskStarted":true,"userId":"524d2272-d17f-42aa-b335-772a7ac10972","dateTime":"2021-11-11T16:00:09.392Z","isRelevant":false},{"internal_node_id":"0.0-0.0-1.0","rt":42836,"question_order":[0,1,2,3,4,5,6,7],"response":{"Q1":"No","Q2":"No","Q3":"No","Q4":"No","Q5":"No","Q6":"No","Q7":"No","Q0":"3"},"trial_type":"survey-multi-choice","time_elapsed":42840,"trial_index":0,"userId":"524d2272-d17f-42aa-b335-772a7ac10972","dateTime":"2021-11-11T16:00:52.233Z","isRelevant":true},{"ua":"Mozilla/5.0 (Macintosh; Intel Mac OS X 10.15; rv:94.0) Gecko/20100101 Firefox/94.0","userId":"524d2272-d17f-42aa-b335-772a7ac10972","dateTime":"2021-11-11T16:00:52.234Z","isRelevant":false},{"taskStarted":true,"userId":"524d2272-d17f-42aa-b335-772a7ac10972","dateTime":"2021-11-13T00:01:27.307Z","isRelevant":false},{"internal_node_id":"0.0-0.0-1.0","rt":32920,"question_order":[0,1,2,3,4,5,6,7],"response":{"Q1":"No","Q2":"No","Q3":"No","Q4":"No","Q5":"No","Q6":"No","Q7":"No","Q0":"6"},"trial_type":"survey-multi-choice","time_elapsed":32926,"trial_index":0,"userId":"524d2272-d17f-42aa-b335-772a7ac10972","dateTime":"2021-11-13T00:02:00.234Z","isRelevant":true},{"ua":"Mozilla/5.0 (Macintosh; Intel Mac OS X 10.15; rv:94.0) Gecko/20100101 Firefox/94.0","userId":"524d2272-d17f-42aa-b335-772a7ac10972","dateTime":"2021-11-13T00:02:00.238Z","isRelevant":false},{"taskStarted":true,"userId":"524d2272-d17f-42aa-b335-772a7ac10972","dateTime":"2021-11-13T22:21:51.787Z","isRelevant":false},{"internal_node_id":"0.0-0.0-1.0","rt":35835,"question_order":[0,1,2,3,4,5,6,7],"response":{"Q1":"No","Q2":"No","Q3":"No","Q4":"No","Q5":"No","Q6":"No","Q7":"No","Q0":"2"},"trial_type":"survey-multi-choice","time_elapsed":35840,"trial_index":0,"userId":"524d2272-d17f-42aa-b335-772a7ac10972","dateTime":"2021-11-13T22:22:27.627Z","isRelevant":true},{"ua":"Mozilla/5.0 (Macintosh; Intel Mac OS X 10.15; rv:94.0) Gecko/20100101 Firefox/94.0","userId":"524d2272-d17f-42aa-b335-772a7ac10972","dateTime":"2021-11-13T22:22:27.630Z","isRelevant":false},{"taskStarted":true,"userId":"524d2272-d17f-42aa-b335-772a7ac10972","dateTime":"2021-11-17T05:07:53.782Z","isRelevant":false},{"internal_node_id":"0.0-0.0-1.0","rt":19813,"question_order":[0,1,2,3,4,5,6,7],"response":{"Q1":"No","Q2":"No","Q3":"No","Q4":"No","Q5":"No","Q6":"No","Q7":"No","Q0":"7"},"trial_type":"survey-multi-choice","time_elapsed":19816,"trial_index":0,"userId":"524d2272-d17f-42aa-b335-772a7ac10972","dateTime":"2021-11-17T05:08:13.598Z","isRelevant":true},{"ua":"Mozilla/5.0 (Macintosh; Intel Mac OS X 10.15; rv:94.0) Gecko/20100101 Firefox/94.0","userId":"524d2272-d17f-42aa-b335-772a7ac10972","dateTime":"2021-11-17T05:08:13.601Z","isRelevant":false},{"taskStarted":true,"userId":"118a2724-6420-41e6-af9f-42da893ea092","dateTime":"2021-11-07T01:26:53.947Z","isRelevant":false},{"internal_node_id":"0.0-0.0-1.0","rt":18467.5,"question_order":[0,1,2,3,4,5,6,7],"response":{"Q1":"No","Q2":"No","Q3":"No","Q4":"No","Q5":"No","Q6":"No","Q7":"No","Q0":"5"},"trial_type":"survey-multi-choice","time_elapsed":18473,"trial_index":0,"userId":"118a2724-6420-41e6-af9f-42da893ea092","dateTime":"2021-11-07T01:27:12.420Z","isRelevant":true},{"ua":"Mozilla/5.0 (Macintosh; Intel Mac OS X 10_15_7) AppleWebKit/537.36 (KHTML, like Gecko) Chrome/95.0.4638.54 Safari/537.36","userId":"118a2724-6420-41e6-af9f-42da893ea092","dateTime":"2021-11-07T01:27:12.424Z","isRelevant":false},{"taskStarted":true,"userId":"118a2724-6420-41e6-af9f-42da893ea092","dateTime":"2021-11-09T06:30:07.091Z","isRelevant":false},{"internal_node_id":"0.0-0.0-1.0","rt":13074.199999988079,"question_order":[0,1,2,3,4,5,6,7],"response":{"Q1":"No","Q2":"No","Q3":"No","Q4":"No","Q5":"No","Q6":"No","Q7":"No","Q0":"4"},"trial_type":"survey-multi-choice","time_elapsed":13081,"trial_index":0,"userId":"118a2724-6420-41e6-af9f-42da893ea092","dateTime":"2021-11-09T06:30:20.173Z","isRelevant":true},{"ua":"Mozilla/5.0 (Macintosh; Intel Mac OS X 10_15_7) AppleWebKit/537.36 (KHTML, like Gecko) Chrome/95.0.4638.54 Safari/537.36","userId":"118a2724-6420-41e6-af9f-42da893ea092","dateTime":"2021-11-09T06:30:20.176Z","isRelevant":false},{"taskStarted":true,"userId":"118a2724-6420-41e6-af9f-42da893ea092","dateTime":"2021-11-09T17:47:34.967Z","isRelevant":false},{"internal_node_id":"0.0-0.0-1.0","rt":13341.300000011921,"question_order":[0,1,2,3,4,5,6,7],"response":{"Q1":"No","Q2":"No","Q3":"No","Q4":"No","Q5":"No","Q6":"No","Q7":"No","Q0":"3"},"trial_type":"survey-multi-choice","time_elapsed":13349,"trial_index":0,"userId":"118a2724-6420-41e6-af9f-42da893ea092","dateTime":"2021-11-09T17:47:48.315Z","isRelevant":true},{"ua":"Mozilla/5.0 (Macintosh; Intel Mac OS X 10_15_7) AppleWebKit/537.36 (KHTML, like Gecko) Chrome/95.0.4638.54 Safari/537.36","userId":"118a2724-6420-41e6-af9f-42da893ea092","dateTime":"2021-11-09T17:47:48.319Z","isRelevant":false},{"taskStarted":true,"userId":"b07d920b-a11a-422a-a359-694608c3cd00","dateTime":"2021-11-16T18:16:05.955Z","isRelevant":false},{"internal_node_id":"0.0-0.0-1.0","rt":90539.39999997616,"question_order":[0,1,2,3,4,5,6,7],"response":{"Q1":"No","Q2":"No","Q3":"Yes","Q4":"No","Q5":"No","Q6":"No","Q7":"No","Q0":"3"},"trial_type":"survey-multi-choice","time_elapsed":90537,"trial_index":0,"userId":"b07d920b-a11a-422a-a359-694608c3cd00","dateTime":"2021-11-16T18:17:36.492Z","isRelevant":true},{"ua":"Mozilla/5.0 (Macintosh; Intel Mac OS X 10_15_7) AppleWebKit/537.36 (KHTML, like Gecko) Chrome/95.0.4638.54 Safari/537.36","userId":"b07d920b-a11a-422a-a359-694608c3cd00","dateTime":"2021-11-16T18:17:36.496Z","isRelevant":false},{"taskStarted":true,"userId":"b07d920b-a11a-422a-a359-694608c3cd00","dateTime":"2021-11-17T23:08:49.462Z","isRelevant":false},{"internal_node_id":"0.0-0.0-1.0","rt":23227.399999976158,"question_order":[0,1,2,3,4,5,6,7],"response":{"Q1":"No","Q2":"No","Q3":"No","Q4":"No","Q5":"No","Q6":"No","Q7":"No","Q0":"4"},"trial_type":"survey-multi-choice","time_elapsed":23229,"trial_index":0,"userId":"b07d920b-a11a-422a-a359-694608c3cd00","dateTime":"2021-11-17T23:09:12.692Z","isRelevant":true},{"ua":"Mozilla/5.0 (Macintosh; Intel Mac OS X 10_15_7) AppleWebKit/537.36 (KHTML, like Gecko) Chrome/95.0.4638.54 Safari/537.36","userId":"b07d920b-a11a-422a-a359-694608c3cd00","dateTime":"2021-11-17T23:09:12.693Z","isRelevant":false},{"taskStarted":true,"userId":"b07d920b-a11a-422a-a359-694608c3cd00","dateTime":"2021-11-19T05:04:51.032Z","isRelevant":false},{"internal_node_id":"0.0-0.0-1.0","rt":43202.89999997616,"question_order":[0,1,2,3,4,5,6,7],"response":{"Q1":"No","Q2":"No","Q3":"Yes","Q4":"No","Q5":"No","Q6":"No","Q7":"No","Q0":"4"},"trial_type":"survey-multi-choice","time_elapsed":43204,"trial_index":0,"userId":"b07d920b-a11a-422a-a359-694608c3cd00","dateTime":"2021-11-19T05:05:34.236Z","isRelevant":true},{"ua":"Mozilla/5.0 (Macintosh; Intel Mac OS X 10_15_7) AppleWebKit/537.36 (KHTML, like Gecko) Chrome/95.0.4638.54 Safari/537.36","userId":"b07d920b-a11a-422a-a359-694608c3cd00","dateTime":"2021-11-19T05:05:34.238Z","isRelevant":false},{"taskStarted":true,"userId":"b07d920b-a11a-422a-a359-694608c3cd00","dateTime":"2021-11-20T00:33:58.970Z","isRelevant":false},{"internal_node_id":"0.0-0.0-1.0","rt":15305.600000023842,"question_order":[0,1,2,3,4,5,6,7],"response":{"Q1":"No","Q2":"No","Q3":"Yes","Q4":"No","Q5":"No","Q6":"No","Q7":"No","Q0":"4"},"trial_type":"survey-multi-choice","time_elapsed":15308,"trial_index":0,"userId":"b07d920b-a11a-422a-a359-694608c3cd00","dateTime":"2021-11-20T00:34:14.278Z","isRelevant":true},{"ua":"Mozilla/5.0 (Macintosh; Intel Mac OS X 10_15_7) AppleWebKit/537.36 (KHTML, like Gecko) Chrome/95.0.4638.54 Safari/537.36","userId":"b07d920b-a11a-422a-a359-694608c3cd00","dateTime":"2021-11-20T00:34:14.280Z","isRelevant":false},{"taskStarted":true,"userId":"b07d920b-a11a-422a-a359-694608c3cd00","dateTime":"2021-11-20T22:33:55.834Z","isRelevant":false},{"internal_node_id":"0.0-0.0-1.0","rt":14027.199999928474,"question_order":[0,1,2,3,4,5,6,7],"response":{"Q1":"No","Q2":"No","Q3":"No","Q4":"No","Q5":"No","Q6":"No","Q7":"No","Q0":"3"},"trial_type":"survey-multi-choice","time_elapsed":14029,"trial_index":0,"userId":"b07d920b-a11a-422a-a359-694608c3cd00","dateTime":"2021-11-20T22:34:09.863Z","isRelevant":true},{"ua":"Mozilla/5.0 (Macintosh; Intel Mac OS X 10_15_7) AppleWebKit/537.36 (KHTML, like Gecko) Chrome/95.0.4638.54 Safari/537.36","userId":"b07d920b-a11a-422a-a359-694608c3cd00","dateTime":"2021-11-20T22:34:09.864Z","isRelevant":false},{"taskStarted":true,"userId":"b07d920b-a11a-422a-a359-694608c3cd00","dateTime":"2021-11-22T21:38:09.553Z","isRelevant":false},{"internal_node_id":"0.0-0.0-1.0","rt":21873.100000023842,"question_order":[0,1,2,3,4,5,6,7],"response":{"Q1":"No","Q2":"No","Q3":"No","Q4":"Yes","Q5":"No","Q6":"No","Q7":"No","Q0":"5"},"trial_type":"survey-multi-choice","time_elapsed":21875,"trial_index":0,"userId":"b07d920b-a11a-422a-a359-694608c3cd00","dateTime":"2021-11-22T21:38:31.428Z","isRelevant":true},{"ua":"Mozilla/5.0 (Macintosh; Intel Mac OS X 10_15_7) AppleWebKit/537.36 (KHTML, like Gecko) Chrome/95.0.4638.54 Safari/537.36","userId":"b07d920b-a11a-422a-a359-694608c3cd00","dateTime":"2021-11-22T21:38:31.429Z","isRelevant":false},{"taskStarted":true,"userId":"22463d21-44f5-47c7-9ae1-547c9124d869","dateTime":"2021-11-09T19:01:28.049Z","isRelevant":false},{"internal_node_id":"0.0-0.0-1.0","rt":63227.19999998808,"question_order":[0,1,2,3,4,5,6,7],"response":{"Q1":"No","Q2":"No","Q3":"No","Q4":"No","Q5":"No","Q6":"No","Q7":"No","Q0":"6"},"trial_type":"survey-multi-choice","time_elapsed":63234,"trial_index":0,"userId":"22463d21-44f5-47c7-9ae1-547c9124d869","dateTime":"2021-11-09T19:02:31.283Z","isRelevant":true},{"ua":"Mozilla/5.0 (Macintosh; Intel Mac OS X 10_15_7) AppleWebKit/537.36 (KHTML, like Gecko) Chrome/94.0.4606.71 Safari/537.36","userId":"22463d21-44f5-47c7-9ae1-547c9124d869","dateTime":"2021-11-09T19:02:31.287Z","isRelevant":false},{"taskStarted":true,"userId":"efcb4b29-e7e5-4dd0-841a-68cb9297c8b8","dateTime":"2021-11-11T05:36:57.032Z","isRelevant":false},{"trial_index":0,"internal_node_id":"0.0-0.0-0.0-0.0","success":true,"trial_type":"fullscreen","time_elapsed":1168,"userId":"efcb4b29-e7e5-4dd0-841a-68cb9297c8b8","dateTime":"2021-11-11T05:36:58.201Z","isRelevant":false},{"internal_node_id":"0.0-0.0-1.0","rt":39991,"question_order":[0,1,2,3,4,5,6,7],"response":{"Q1":"No","Q2":"Yes","Q3":"No","Q4":"No","Q5":"No","Q6":"No","Q7":"No","Q0":"6"},"trial_type":"survey-multi-choice","time_elapsed":41170,"trial_index":1,"userId":"efcb4b29-e7e5-4dd0-841a-68cb9297c8b8","dateTime":"2021-11-11T05:37:38.203Z","isRelevant":true},{"ua":"Mozilla/5.0 (Macintosh; Intel Mac OS X 10.15; rv:94.0) Gecko/20100101 Firefox/94.0","userId":"efcb4b29-e7e5-4dd0-841a-68cb9297c8b8","dateTime":"2021-11-11T05:37:38.213Z","isRelevant":false},{"taskStarted":true,"userId":"efcb4b29-e7e5-4dd0-841a-68cb9297c8b8","dateTime":"2021-11-11T05:37:45.513Z","isRelevant":false},{"taskStarted":true,"userId":"1e7afe8d-bc84-463f-bd6e-c9bd987464be","dateTime":"2021-11-17T15:49:38.317Z","isRelevant":false},{"internal_node_id":"0.0-0.0-1.0","rt":185846,"question_order":[0,1,2,3,4,5,6,7],"response":{"Q1":"Yes","Q2":"Yes","Q3":"No","Q4":"No","Q5":"No","Q6":"No","Q7":"No","Q0":"2"},"trial_type":"survey-multi-choice","time_elapsed":185850,"trial_index":0,"userId":"1e7afe8d-bc84-463f-bd6e-c9bd987464be","dateTime":"2021-11-17T15:52:44.167Z","isRelevant":true},{"ua":"Mozilla/5.0 (Windows NT 10.0; Win64; x64; rv:91.0) Gecko/20100101 Firefox/91.0","userId":"1e7afe8d-bc84-463f-bd6e-c9bd987464be","dateTime":"2021-11-17T15:52:44.174Z","isRelevant":false},{"taskStarted":true,"userId":"1e7afe8d-bc84-463f-bd6e-c9bd987464be","dateTime":"2021-11-17T20:12:28.662Z","isRelevant":false},{"internal_node_id":"0.0-0.0-1.0","rt":30555,"question_order":[0,1,2,3,4,5,6,7],"response":{"Q1":"No","Q2":"No","Q3":"No","Q4":"No","Q5":"No","Q6":"No","Q7":"No","Q0":"1"},"trial_type":"survey-multi-choice","time_elapsed":30559,"trial_index":0,"userId":"1e7afe8d-bc84-463f-bd6e-c9bd987464be","dateTime":"2021-11-17T20:12:59.220Z","isRelevant":true},{"ua":"Mozilla/5.0 (Windows NT 10.0; Win64; x64; rv:91.0) Gecko/20100101 Firefox/91.0","userId":"1e7afe8d-bc84-463f-bd6e-c9bd987464be","dateTime":"2021-11-17T20:12:59.222Z","isRelevant":false},{"taskStarted":true,"userId":"1e7afe8d-bc84-463f-bd6e-c9bd987464be","dateTime":"2021-11-18T12:18:38.836Z","isRelevant":false},{"internal_node_id":"0.0-0.0-1.0","rt":41916,"question_order":[0,1,2,3,4,5,6,7],"response":{"Q1":"No","Q2":"No","Q3":"No","Q4":"No","Q5":"No","Q6":"No","Q7":"No","Q0":"2"},"trial_type":"survey-multi-choice","time_elapsed":41920,"trial_index":0,"userId":"1e7afe8d-bc84-463f-bd6e-c9bd987464be","dateTime":"2021-11-18T12:19:20.756Z","isRelevant":true},{"ua":"Mozilla/5.0 (Windows NT 10.0; Win64; x64; rv:91.0) Gecko/20100101 Firefox/91.0","userId":"1e7afe8d-bc84-463f-bd6e-c9bd987464be","dateTime":"2021-11-18T12:19:20.758Z","isRelevant":false},{"taskStarted":true,"userId":"1e7afe8d-bc84-463f-bd6e-c9bd987464be","dateTime":"2021-11-18T15:52:57.774Z","isRelevant":false},{"internal_node_id":"0.0-0.0-1.0","rt":12344,"question_order":[0,1,2,3,4,5,6,7],"response":{"Q1":"No","Q2":"No","Q3":"No","Q4":"No","Q5":"No","Q6":"No","Q7":"No","Q0":"3"},"trial_type":"survey-multi-choice","time_elapsed":12349,"trial_index":0,"userId":"1e7afe8d-bc84-463f-bd6e-c9bd987464be","dateTime":"2021-11-18T15:53:10.123Z","isRelevant":true},{"ua":"Mozilla/5.0 (Windows NT 10.0; Win64; x64; rv:91.0) Gecko/20100101 Firefox/91.0","userId":"1e7afe8d-bc84-463f-bd6e-c9bd987464be","dateTime":"2021-11-18T15:53:10.125Z","isRelevant":false},{"taskStarted":true,"userId":"1e7afe8d-bc84-463f-bd6e-c9bd987464be","dateTime":"2021-11-19T20:03:32.262Z","isRelevant":false},{"internal_node_id":"0.0-0.0-1.0","rt":14277,"question_order":[0,1,2,3,4,5,6,7],"response":{"Q1":"No","Q2":"No","Q3":"No","Q4":"No","Q5":"No","Q6":"No","Q7":"No","Q0":"2"},"trial_type":"survey-multi-choice","time_elapsed":14284,"trial_index":0,"userId":"1e7afe8d-bc84-463f-bd6e-c9bd987464be","dateTime":"2021-11-19T20:03:46.546Z","isRelevant":true},{"ua":"Mozilla/5.0 (Windows NT 10.0; Win64; x64; rv:91.0) Gecko/20100101 Firefox/91.0","userId":"1e7afe8d-bc84-463f-bd6e-c9bd987464be","dateTime":"2021-11-19T20:03:46.549Z","isRelevant":false},{"taskStarted":true,"userId":"165fd106-8a5c-4705-8441-3beaa87dbda4","dateTime":"2021-11-15T18:03:00.434Z","isRelevant":false},{"internal_node_id":"0.0-0.0-1.0","rt":89755,"question_order":[0,1,2,3,4,5,6,7],"response":{"Q1":"No","Q2":"Yes","Q3":"Yes","Q4":"Yes","Q5":"No","Q6":"No","Q7":"No","Q0":"3"},"trial_type":"survey-multi-choice","time_elapsed":89787,"trial_index":0,"userId":"165fd106-8a5c-4705-8441-3beaa87dbda4","dateTime":"2021-11-15T18:04:30.221Z","isRelevant":true},{"ua":"Mozilla/5.0 (Macintosh; Intel Mac OS X 10_15_7) AppleWebKit/605.1.15 (KHTML, like Gecko) Version/15.0 Safari/605.1.15","userId":"165fd106-8a5c-4705-8441-3beaa87dbda4","dateTime":"2021-11-15T18:04:30.223Z","isRelevant":false},{"taskStarted":true,"userId":"165fd106-8a5c-4705-8441-3beaa87dbda4","dateTime":"2021-11-16T22:52:46.799Z","isRelevant":false},{"internal_node_id":"0.0-0.0-1.0","rt":81013,"question_order":[0,1,2,3,4,5,6,7],"response":{"Q1":"No","Q2":"Yes","Q3":"Yes","Q4":"Yes","Q5":"No","Q6":"No","Q7":"Yes","Q0":"4"},"trial_type":"survey-multi-choice","time_elapsed":81018,"trial_index":0,"userId":"165fd106-8a5c-4705-8441-3beaa87dbda4","dateTime":"2021-11-16T22:54:07.817Z","isRelevant":true},{"ua":"Mozilla/5.0 (Macintosh; Intel Mac OS X 10_15_7) AppleWebKit/605.1.15 (KHTML, like Gecko) Version/15.0 Safari/605.1.15","userId":"165fd106-8a5c-4705-8441-3beaa87dbda4","dateTime":"2021-11-16T22:54:07.819Z","isRelevant":false},{"taskStarted":true,"userId":"165fd106-8a5c-4705-8441-3beaa87dbda4","dateTime":"2021-11-17T16:59:30.187Z","isRelevant":false},{"internal_node_id":"0.0-0.0-1.0","rt":108188,"question_order":[0,1,2,3,4,5,6,7],"response":{"Q1":"No","Q2":"Yes","Q3":"Yes","Q4":"Yes","Q5":"No","Q6":"Yes","Q7":"Yes","Q0":"6"},"trial_type":"survey-multi-choice","time_elapsed":108194,"trial_index":0,"userId":"165fd106-8a5c-4705-8441-3beaa87dbda4","dateTime":"2021-11-17T17:01:18.382Z","isRelevant":true},{"ua":"Mozilla/5.0 (Macintosh; Intel Mac OS X 10_15_7) AppleWebKit/605.1.15 (KHTML, like Gecko) Version/15.0 Safari/605.1.15","userId":"165fd106-8a5c-4705-8441-3beaa87dbda4","dateTime":"2021-11-17T17:01:18.385Z","isRelevant":false},{"taskStarted":true,"userId":"165fd106-8a5c-4705-8441-3beaa87dbda4","dateTime":"2021-11-18T00:33:42.622Z","isRelevant":false},{"internal_node_id":"0.0-0.0-1.0","rt":25823.999999999985,"question_order":[0,1,2,3,4,5,6,7],"response":{"Q1":"Yes","Q2":"Yes","Q3":"Yes","Q4":"Yes","Q5":"No","Q6":"Yes","Q7":"Yes","Q0":"6"},"trial_type":"survey-multi-choice","time_elapsed":25831,"trial_index":0,"userId":"165fd106-8a5c-4705-8441-3beaa87dbda4","dateTime":"2021-11-18T00:34:08.452Z","isRelevant":true},{"ua":"Mozilla/5.0 (Macintosh; Intel Mac OS X 10_15_7) AppleWebKit/605.1.15 (KHTML, like Gecko) Version/15.0 Safari/605.1.15","userId":"165fd106-8a5c-4705-8441-3beaa87dbda4","dateTime":"2021-11-18T00:34:08.454Z","isRelevant":false},{"taskStarted":true,"userId":"165fd106-8a5c-4705-8441-3beaa87dbda4","dateTime":"2021-11-19T02:04:37.473Z","isRelevant":false},{"internal_node_id":"0.0-0.0-1.0","rt":28261.000000000466,"question_order":[0,1,2,3,4,5,6,7],"response":{"Q1":"Yes","Q2":"Yes","Q3":"Yes","Q4":"Yes","Q5":"No","Q6":"Yes","Q7":"Yes","Q0":"4"},"trial_type":"survey-multi-choice","time_elapsed":28267,"trial_index":0,"userId":"165fd106-8a5c-4705-8441-3beaa87dbda4","dateTime":"2021-11-19T02:05:05.741Z","isRelevant":true},{"ua":"Mozilla/5.0 (Macintosh; Intel Mac OS X 10_15_7) AppleWebKit/605.1.15 (KHTML, like Gecko) Version/15.0 Safari/605.1.15","userId":"165fd106-8a5c-4705-8441-3beaa87dbda4","dateTime":"2021-11-19T02:05:05.743Z","isRelevant":false},{"taskStarted":true,"userId":"0e09ed0f-3833-4304-9c23-ab6f5962e14c","dateTime":"2021-11-04T18:41:46.675Z","isRelevant":false},{"internal_node_id":"0.0-0.0-1.0","question_order":[0,1,2,3,4,5,6,7],"response":{"Q0":"3","Q1":"No","Q2":"No","Q3":"No","Q4":"No","Q5":"No","Q6":"No","Q7":"No"},"rt":26750.199999999953,"time_elapsed":26753,"trial_index":0,"trial_type":"survey-multi-choice","userId":"0e09ed0f-3833-4304-9c23-ab6f5962e14c","dateTime":"2021-11-04T18:42:13.427Z","isRelevant":true},{"ua":"Mozilla/5.0 (Windows NT 10.0; Win64; x64) AppleWebKit/537.36 (KHTML, like Gecko) Chrome/95.0.4638.69 Safari/537.36","userId":"0e09ed0f-3833-4304-9c23-ab6f5962e14c","dateTime":"2021-11-04T18:42:13.429Z","isRelevant":false},{"taskStarted":true,"userId":"a39c0907-29e6-4c85-9188-b21b04ca17a6","dateTime":"2021-11-03T22:04:47.838Z","isRelevant":false},{"internal_node_id":"0.0-0.0-1.0","question_order":[0,1,2,3,4,5,6,7],"response":{"Q0":"1","Q1":"No","Q2":"No","Q3":"No","Q4":"No","Q5":"No","Q6":"No","Q7":"No"},"rt":73548.30000019073,"time_elapsed":73554,"trial_index":0,"trial_type":"survey-multi-choice","userId":"a39c0907-29e6-4c85-9188-b21b04ca17a6","dateTime":"2021-11-03T22:06:01.393Z","isRelevant":true},{"ua":"Mozilla/5.0 (Macintosh; Intel Mac OS X 10_15_7) AppleWebKit/537.36 (KHTML, like Gecko) Chrome/95.0.4638.54 Safari/537.36","userId":"a39c0907-29e6-4c85-9188-b21b04ca17a6","dateTime":"2021-11-03T22:06:01.397Z","isRelevant":false},{"taskStarted":true,"userId":"a39c0907-29e6-4c85-9188-b21b04ca17a6","dateTime":"2021-11-04T16:38:08.654Z","isRelevant":false},{"internal_node_id":"0.0-0.0-1.0","question_order":[0,1,2,3,4,5,6,7],"response":{"Q0":"1","Q1":"No","Q2":"No","Q3":"No","Q4":"No","Q5":"No","Q6":"No","Q7":"No"},"rt":98682.7999997139,"time_elapsed":98690,"trial_index":0,"trial_type":"survey-multi-choice","userId":"a39c0907-29e6-4c85-9188-b21b04ca17a6","dateTime":"2021-11-04T16:39:47.343Z","isRelevant":true},{"ua":"Mozilla/5.0 (Macintosh; Intel Mac OS X 10_15_7) AppleWebKit/537.36 (KHTML, like Gecko) Chrome/95.0.4638.54 Safari/537.36","userId":"a39c0907-29e6-4c85-9188-b21b04ca17a6","dateTime":"2021-11-04T16:39:47.345Z","isRelevant":false},{"taskStarted":true,"userId":"a39c0907-29e6-4c85-9188-b21b04ca17a6","dateTime":"2021-11-05T16:19:22.619Z","isRelevant":false},{"internal_node_id":"0.0-0.0-1.0","question_order":[0,1,2,3,4,5,6,7],"response":{"Q0":"1","Q1":"No","Q2":"No","Q3":"No","Q4":"No","Q5":"No","Q6":"No","Q7":"No"},"rt":37565.199999809265,"time_elapsed":37571,"trial_index":0,"trial_type":"survey-multi-choice","userId":"a39c0907-29e6-4c85-9188-b21b04ca17a6","dateTime":"2021-11-05T16:20:00.190Z","isRelevant":true},{"ua":"Mozilla/5.0 (Macintosh; Intel Mac OS X 10_15_7) AppleWebKit/537.36 (KHTML, like Gecko) Chrome/95.0.4638.54 Safari/537.36","userId":"a39c0907-29e6-4c85-9188-b21b04ca17a6","dateTime":"2021-11-05T16:20:00.192Z","isRelevant":false},{"taskStarted":true,"userId":"a39c0907-29e6-4c85-9188-b21b04ca17a6","dateTime":"2021-11-07T22:30:35.789Z","isRelevant":false},{"internal_node_id":"0.0-0.0-1.0","rt":20273.400000095367,"question_order":[0,1,2,3,4,5,6,7],"response":{"Q1":"No","Q2":"No","Q3":"No","Q4":"No","Q5":"No","Q6":"No","Q7":"No","Q0":"1"},"trial_type":"survey-multi-choice","time_elapsed":20279,"trial_index":0,"userId":"a39c0907-29e6-4c85-9188-b21b04ca17a6","dateTime":"2021-11-07T22:30:56.068Z","isRelevant":true},{"ua":"Mozilla/5.0 (Macintosh; Intel Mac OS X 10_15_7) AppleWebKit/537.36 (KHTML, like Gecko) Chrome/95.0.4638.69 Safari/537.36","userId":"a39c0907-29e6-4c85-9188-b21b04ca17a6","dateTime":"2021-11-07T22:30:56.071Z","isRelevant":false},{"taskStarted":true,"userId":"a39c0907-29e6-4c85-9188-b21b04ca17a6","dateTime":"2021-11-09T18:20:25.046Z","isRelevant":false},{"internal_node_id":"0.0-0.0-1.0","rt":14168.099999904633,"question_order":[0,1,2,3,4,5,6,7],"response":{"Q1":"No","Q2":"No","Q3":"No","Q4":"No","Q5":"No","Q6":"No","Q7":"No","Q0":"1"},"trial_type":"survey-multi-choice","time_elapsed":14174,"trial_index":0,"userId":"a39c0907-29e6-4c85-9188-b21b04ca17a6","dateTime":"2021-11-09T18:20:39.220Z","isRelevant":true},{"ua":"Mozilla/5.0 (Macintosh; Intel Mac OS X 10_15_7) AppleWebKit/537.36 (KHTML, like Gecko) Chrome/95.0.4638.69 Safari/537.36","userId":"a39c0907-29e6-4c85-9188-b21b04ca17a6","dateTime":"2021-11-09T18:20:39.222Z","isRelevant":false},{"taskStarted":true,"userId":"792390ab-56ba-47a8-8c3c-1ea452762f1c","dateTime":"2021-11-11T01:10:44.056Z","isRelevant":false},{"internal_node_id":"0.0-0.0-1.0","rt":34555.70000000298,"question_order":[0,1,2,3,4,5,6,7],"response":{"Q1":"No","Q2":"No","Q3":"No","Q4":"No","Q5":"No","Q6":"No","Q7":"No","Q0":"1"},"trial_type":"survey-multi-choice","time_elapsed":34571,"trial_index":0,"userId":"792390ab-56ba-47a8-8c3c-1ea452762f1c","dateTime":"2021-11-11T01:11:18.627Z","isRelevant":true},{"ua":"Mozilla/5.0 (Windows NT 10.0; Win64; x64) AppleWebKit/537.36 (KHTML, like Gecko) Chrome/95.0.4638.69 Safari/537.36 Edg/95.0.1020.44","userId":"792390ab-56ba-47a8-8c3c-1ea452762f1c","dateTime":"2021-11-11T01:11:18.640Z","isRelevant":false},{"taskStarted":true,"userId":"792390ab-56ba-47a8-8c3c-1ea452762f1c","dateTime":"2021-11-11T18:50:49.686Z","isRelevant":false},{"internal_node_id":"0.0-0.0-1.0","rt":17362.09999999404,"question_order":[0,1,2,3,4,5,6,7],"response":{"Q1":"No","Q2":"No","Q3":"No","Q4":"No","Q5":"No","Q6":"No","Q7":"No","Q0":"1"},"trial_type":"survey-multi-choice","time_elapsed":17369,"trial_index":0,"userId":"792390ab-56ba-47a8-8c3c-1ea452762f1c","dateTime":"2021-11-11T18:51:07.053Z","isRelevant":true},{"ua":"Mozilla/5.0 (Windows NT 10.0; Win64; x64) AppleWebKit/537.36 (KHTML, like Gecko) Chrome/95.0.4638.69 Safari/537.36 Edg/95.0.1020.44","userId":"792390ab-56ba-47a8-8c3c-1ea452762f1c","dateTime":"2021-11-11T18:51:07.055Z","isRelevant":false},{"taskStarted":true,"userId":"792390ab-56ba-47a8-8c3c-1ea452762f1c","dateTime":"2021-11-13T06:05:39.693Z","isRelevant":false},{"internal_node_id":"0.0-0.0-1.0","rt":21947.59999999404,"question_order":[0,1,2,3,4,5,6,7],"response":{"Q1":"No","Q2":"No","Q3":"No","Q4":"No","Q5":"No","Q6":"No","Q7":"No","Q0":"1"},"trial_type":"survey-multi-choice","time_elapsed":21958,"trial_index":0,"userId":"792390ab-56ba-47a8-8c3c-1ea452762f1c","dateTime":"2021-11-13T06:06:01.655Z","isRelevant":true},{"ua":"Mozilla/5.0 (Windows NT 10.0; Win64; x64) AppleWebKit/537.36 (KHTML, like Gecko) Chrome/95.0.4638.69 Safari/537.36","userId":"792390ab-56ba-47a8-8c3c-1ea452762f1c","dateTime":"2021-11-13T06:06:01.659Z","isRelevant":false},{"taskStarted":true,"userId":"792390ab-56ba-47a8-8c3c-1ea452762f1c","dateTime":"2021-11-13T17:12:07.957Z","isRelevant":false},{"internal_node_id":"0.0-0.0-1.0","rt":19861.899999976158,"question_order":[0,1,2,3,4,5,6,7],"response":{"Q1":"No","Q2":"No","Q3":"No","Q4":"No","Q5":"No","Q6":"No","Q7":"No","Q0":"1"},"trial_type":"survey-multi-choice","time_elapsed":19868,"trial_index":0,"userId":"792390ab-56ba-47a8-8c3c-1ea452762f1c","dateTime":"2021-11-13T17:12:27.825Z","isRelevant":true},{"ua":"Mozilla/5.0 (Windows NT 10.0; Win64; x64) AppleWebKit/537.36 (KHTML, like Gecko) Chrome/95.0.4638.69 Safari/537.36 Edg/95.0.1020.44","userId":"792390ab-56ba-47a8-8c3c-1ea452762f1c","dateTime":"2021-11-13T17:12:27.829Z","isRelevant":false},{"taskStarted":true,"userId":"792390ab-56ba-47a8-8c3c-1ea452762f1c","dateTime":"2021-11-15T17:41:33.013Z","isRelevant":false},{"internal_node_id":"0.0-0.0-1.0","rt":28239.799999952316,"question_order":[0,1,2,3,4,5,6,7],"response":{"Q1":"No","Q2":"No","Q3":"No","Q4":"No","Q5":"No","Q6":"No","Q7":"No","Q0":"1"},"trial_type":"survey-multi-choice","time_elapsed":28246,"trial_index":0,"userId":"792390ab-56ba-47a8-8c3c-1ea452762f1c","dateTime":"2021-11-15T17:42:01.259Z","isRelevant":true},{"ua":"Mozilla/5.0 (Windows NT 10.0; Win64; x64) AppleWebKit/537.36 (KHTML, like Gecko) Chrome/95.0.4638.69 Safari/537.36 Edg/95.0.1020.53","userId":"792390ab-56ba-47a8-8c3c-1ea452762f1c","dateTime":"2021-11-15T17:42:01.262Z","isRelevant":false},{"taskStarted":true,"userId":"6079389f-5d71-4087-9a91-f7e150dec265","dateTime":"2021-11-09T19:59:07.483Z","isRelevant":false},{"internal_node_id":"0.0-0.0-1.0","rt":77468.20000004768,"question_order":[0,1,2,3,4,5,6,7],"response":{"Q1":"No","Q2":"No","Q3":"No","Q4":"No","Q5":"No","Q6":"No","Q7":"No","Q0":"4"},"trial_type":"survey-multi-choice","time_elapsed":77473,"trial_index":0,"userId":"6079389f-5d71-4087-9a91-f7e150dec265","dateTime":"2021-11-09T20:00:24.956Z","isRelevant":true},{"ua":"Mozilla/5.0 (Windows NT 10.0; Win64; x64) AppleWebKit/537.36 (KHTML, like Gecko) Chrome/95.0.4638.69 Safari/537.36","userId":"6079389f-5d71-4087-9a91-f7e150dec265","dateTime":"2021-11-09T20:00:24.958Z","isRelevant":false},{"taskStarted":true,"userId":"6079389f-5d71-4087-9a91-f7e150dec265","dateTime":"2021-11-10T20:50:47.150Z","isRelevant":false},{"internal_node_id":"0.0-0.0-1.0","rt":98156.89999999851,"question_order":[0,1,2,3,4,5,6,7],"response":{"Q1":"No","Q2":"Yes","Q3":"Yes","Q4":"No","Q5":"No","Q6":"No","Q7":"No","Q0":"5"},"trial_type":"survey-multi-choice","time_elapsed":98163,"trial_index":0,"userId":"6079389f-5d71-4087-9a91-f7e150dec265","dateTime":"2021-11-10T20:52:25.312Z","isRelevant":true},{"ua":"Mozilla/5.0 (Windows NT 10.0; Win64; x64) AppleWebKit/537.36 (KHTML, like Gecko) Chrome/95.0.4638.69 Safari/537.36","userId":"6079389f-5d71-4087-9a91-f7e150dec265","dateTime":"2021-11-10T20:52:25.314Z","isRelevant":false},{"taskStarted":true,"userId":"6079389f-5d71-4087-9a91-f7e150dec265","dateTime":"2021-11-11T18:12:30.691Z","isRelevant":false},{"taskStarted":true,"userId":"6079389f-5d71-4087-9a91-f7e150dec265","dateTime":"2021-11-12T06:58:16.386Z","isRelevant":false},{"internal_node_id":"0.0-0.0-1.0","rt":13603.5,"question_order":[0,1,2,3,4,5,6,7],"response":{"Q1":"No","Q2":"No","Q3":"No","Q4":"No","Q5":"No","Q6":"No","Q7":"No","Q0":"4"},"trial_type":"survey-multi-choice","time_elapsed":13610,"trial_index":0,"userId":"6079389f-5d71-4087-9a91-f7e150dec265","dateTime":"2021-11-12T06:58:29.995Z","isRelevant":true},{"ua":"Mozilla/5.0 (Windows NT 10.0; Win64; x64) AppleWebKit/537.36 (KHTML, like Gecko) Chrome/95.0.4638.69 Safari/537.36","userId":"6079389f-5d71-4087-9a91-f7e150dec265","dateTime":"2021-11-12T06:58:29.997Z","isRelevant":false},{"taskStarted":true,"userId":"6079389f-5d71-4087-9a91-f7e150dec265","dateTime":"2021-11-15T05:09:34.015Z","isRelevant":false},{"internal_node_id":"0.0-0.0-1.0","rt":16205.699999988079,"question_order":[0,1,2,3,4,5,6,7],"response":{"Q1":"No","Q2":"No","Q3":"No","Q4":"No","Q5":"No","Q6":"No","Q7":"No","Q0":"5"},"trial_type":"survey-multi-choice","time_elapsed":16209,"trial_index":0,"userId":"6079389f-5d71-4087-9a91-f7e150dec265","dateTime":"2021-11-15T05:09:50.225Z","isRelevant":true},{"ua":"Mozilla/5.0 (Windows NT 10.0; Win64; x64) AppleWebKit/537.36 (KHTML, like Gecko) Chrome/95.0.4638.69 Safari/537.36","userId":"6079389f-5d71-4087-9a91-f7e150dec265","dateTime":"2021-11-15T05:09:50.231Z","isRelevant":false},{"taskStarted":true,"userId":"6079389f-5d71-4087-9a91-f7e150dec265","dateTime":"2021-11-17T19:36:13.580Z","isRelevant":false},{"internal_node_id":"0.0-0.0-1.0","rt":22842.399999976158,"question_order":[0,1,2,3,4,5,6,7],"response":{"Q1":"No","Q2":"No","Q3":"No","Q4":"No","Q5":"No","Q6":"No","Q7":"No","Q0":"4"},"trial_type":"survey-multi-choice","time_elapsed":22847,"trial_index":0,"userId":"6079389f-5d71-4087-9a91-f7e150dec265","dateTime":"2021-11-17T19:36:36.426Z","isRelevant":true},{"ua":"Mozilla/5.0 (Windows NT 10.0; Win64; x64) AppleWebKit/537.36 (KHTML, like Gecko) Chrome/95.0.4638.69 Safari/537.36","userId":"6079389f-5d71-4087-9a91-f7e150dec265","dateTime":"2021-11-17T19:36:36.428Z","isRelevant":false},{"taskStarted":true,"userId":"8bd2c88d-a06a-48d4-8311-0ed11e6b11d6","dateTime":"2021-11-15T23:51:34.666Z","isRelevant":false},{"internal_node_id":"0.0-0.0-1.0","rt":173619.5,"question_order":[0,1,2,3,4,5,6,7],"response":{"Q1":"No","Q2":"No","Q3":"No","Q4":"No","Q5":"No","Q6":"No","Q7":"No","Q0":"5"},"trial_type":"survey-multi-choice","time_elapsed":173634,"trial_index":0,"userId":"8bd2c88d-a06a-48d4-8311-0ed11e6b11d6","dateTime":"2021-11-15T23:54:28.300Z","isRelevant":true},{"ua":"Mozilla/5.0 (Macintosh; Intel Mac OS X 10_13_6) AppleWebKit/537.36 (KHTML, like Gecko) Chrome/96.0.4664.45 Safari/537.36","userId":"8bd2c88d-a06a-48d4-8311-0ed11e6b11d6","dateTime":"2021-11-15T23:54:28.305Z","isRelevant":false},{"taskStarted":true,"userId":"8bd2c88d-a06a-48d4-8311-0ed11e6b11d6","dateTime":"2021-11-16T00:12:25.625Z","isRelevant":false},{"taskStarted":true,"userId":"0d940b94-1baf-43bf-a981-857ddf728e29","dateTime":"2021-11-09T17:22:30.924Z","isRelevant":false},{"internal_node_id":"0.0-0.0-1.0","rt":56674,"question_order":[0,1,2,3,4,5,6,7],"response":{"Q1":"No","Q2":"No","Q3":"No","Q4":"No","Q5":"No","Q6":"No","Q7":"No","Q0":"3"},"trial_type":"survey-multi-choice","time_elapsed":56675,"trial_index":0,"userId":"0d940b94-1baf-43bf-a981-857ddf728e29","dateTime":"2021-11-09T17:23:27.601Z","isRelevant":true},{"ua":"Mozilla/5.0 (Macintosh; Intel Mac OS X 10.15; rv:94.0) Gecko/20100101 Firefox/94.0","userId":"0d940b94-1baf-43bf-a981-857ddf728e29","dateTime":"2021-11-09T17:23:27.604Z","isRelevant":false},{"taskStarted":true,"userId":"0d940b94-1baf-43bf-a981-857ddf728e29","dateTime":"2021-11-11T17:42:19.287Z","isRelevant":false},{"internal_node_id":"0.0-0.0-1.0","rt":52614,"question_order":[0,1,2,3,4,5,6,7],"response":{"Q1":"No","Q2":"No","Q3":"No","Q4":"No","Q5":"No","Q6":"No","Q7":"No","Q0":"4"},"trial_type":"survey-multi-choice","time_elapsed":52620,"trial_index":0,"userId":"0d940b94-1baf-43bf-a981-857ddf728e29","dateTime":"2021-11-11T17:43:11.907Z","isRelevant":true},{"ua":"Mozilla/5.0 (Macintosh; Intel Mac OS X 10.15; rv:94.0) Gecko/20100101 Firefox/94.0","userId":"0d940b94-1baf-43bf-a981-857ddf728e29","dateTime":"2021-11-11T17:43:11.910Z","isRelevant":false},{"taskStarted":true,"userId":"0d940b94-1baf-43bf-a981-857ddf728e29","dateTime":"2021-11-14T04:23:14.610Z","isRelevant":false},{"internal_node_id":"0.0-0.0-1.0","rt":35184,"question_order":[0,1,2,3,4,5,6,7],"response":{"Q1":"No","Q2":"No","Q3":"No","Q4":"No","Q5":"No","Q6":"No","Q7":"No","Q0":"2"},"trial_type":"survey-multi-choice","time_elapsed":35191,"trial_index":0,"userId":"0d940b94-1baf-43bf-a981-857ddf728e29","dateTime":"2021-11-14T04:23:49.802Z","isRelevant":true},{"ua":"Mozilla/5.0 (Macintosh; Intel Mac OS X 10.15; rv:94.0) Gecko/20100101 Firefox/94.0","userId":"0d940b94-1baf-43bf-a981-857ddf728e29","dateTime":"2021-11-14T04:23:49.808Z","isRelevant":false},{"taskStarted":true,"userId":"0d940b94-1baf-43bf-a981-857ddf728e29","dateTime":"2021-11-14T15:09:21.112Z","isRelevant":false},{"internal_node_id":"0.0-0.0-1.0","rt":24831,"question_order":[0,1,2,3,4,5,6,7],"response":{"Q1":"No","Q2":"No","Q3":"No","Q4":"No","Q5":"No","Q6":"No","Q7":"No","Q0":"3"},"trial_type":"survey-multi-choice","time_elapsed":24838,"trial_index":0,"userId":"0d940b94-1baf-43bf-a981-857ddf728e29","dateTime":"2021-11-14T15:09:45.950Z","isRelevant":true},{"ua":"Mozilla/5.0 (Macintosh; Intel Mac OS X 10.15; rv:94.0) Gecko/20100101 Firefox/94.0","userId":"0d940b94-1baf-43bf-a981-857ddf728e29","dateTime":"2021-11-14T15:09:45.962Z","isRelevant":false},{"taskStarted":true,"userId":"0d940b94-1baf-43bf-a981-857ddf728e29","dateTime":"2021-11-17T23:24:24.182Z","isRelevant":false},{"internal_node_id":"0.0-0.0-1.0","rt":29314,"question_order":[0,1,2,3,4,5,6,7],"response":{"Q1":"No","Q2":"No","Q3":"No","Q4":"No","Q5":"No","Q6":"No","Q7":"No","Q0":"3"},"trial_type":"survey-multi-choice","time_elapsed":29319,"trial_index":0,"userId":"0d940b94-1baf-43bf-a981-857ddf728e29","dateTime":"2021-11-17T23:24:53.501Z","isRelevant":true},{"ua":"Mozilla/5.0 (Macintosh; Intel Mac OS X 10.15; rv:94.0) Gecko/20100101 Firefox/94.0","userId":"0d940b94-1baf-43bf-a981-857ddf728e29","dateTime":"2021-11-17T23:24:53.507Z","isRelevant":false},{"taskStarted":true,"userId":"0498cbe0-60ab-45be-984d-ded9dbcdc27d","dateTime":"2021-11-05T16:59:40.154Z","isRelevant":false},{"internal_node_id":"0.0-0.0-1.0","question_order":[0,1,2,3,4,5,6,7],"response":{"Q0":"2","Q1":"No","Q2":"No","Q3":"Yes","Q4":"No","Q5":"No","Q6":"No","Q7":"Yes"},"rt":38351.5,"time_elapsed":38354,"trial_index":0,"trial_type":"survey-multi-choice","userId":"0498cbe0-60ab-45be-984d-ded9dbcdc27d","dateTime":"2021-11-05T17:00:18.508Z","isRelevant":true},{"ua":"Mozilla/5.0 (Windows NT 10.0; Win64; x64) AppleWebKit/537.36 (KHTML, like Gecko) Chrome/95.0.4638.69 Safari/537.36","userId":"0498cbe0-60ab-45be-984d-ded9dbcdc27d","dateTime":"2021-11-05T17:00:18.509Z","isRelevant":false},{"taskStarted":true,"userId":"0498cbe0-60ab-45be-984d-ded9dbcdc27d","dateTime":"2021-11-06T19:04:44.381Z","isRelevant":false},{"internal_node_id":"0.0-0.0-1.0","rt":42253.89999999851,"question_order":[0,1,2,3,4,5,6,7],"response":{"Q1":"No","Q2":"No","Q3":"Yes","Q4":"No","Q5":"No","Q6":"No","Q7":"Yes","Q0":"4"},"trial_type":"survey-multi-choice","time_elapsed":42258,"trial_index":0,"userId":"0498cbe0-60ab-45be-984d-ded9dbcdc27d","dateTime":"2021-11-06T19:05:26.638Z","isRelevant":true},{"ua":"Mozilla/5.0 (Windows NT 10.0; Win64; x64) AppleWebKit/537.36 (KHTML, like Gecko) Chrome/95.0.4638.69 Safari/537.36","userId":"0498cbe0-60ab-45be-984d-ded9dbcdc27d","dateTime":"2021-11-06T19:05:26.639Z","isRelevant":false},{"taskStarted":true,"userId":"0498cbe0-60ab-45be-984d-ded9dbcdc27d","dateTime":"2021-11-07T21:18:04.956Z","isRelevant":false},{"internal_node_id":"0.0-0.0-1.0","rt":15892.10000000894,"question_order":[0,1,2,3,4,5,6,7],"response":{"Q1":"No","Q2":"No","Q3":"No","Q4":"No","Q5":"No","Q6":"No","Q7":"No","Q0":"1"},"trial_type":"survey-multi-choice","time_elapsed":15895,"trial_index":0,"userId":"0498cbe0-60ab-45be-984d-ded9dbcdc27d","dateTime":"2021-11-07T21:18:20.852Z","isRelevant":true},{"ua":"Mozilla/5.0 (Windows NT 10.0; Win64; x64) AppleWebKit/537.36 (KHTML, like Gecko) Chrome/95.0.4638.69 Safari/537.36","userId":"0498cbe0-60ab-45be-984d-ded9dbcdc27d","dateTime":"2021-11-07T21:18:20.853Z","isRelevant":false},{"taskStarted":true,"userId":"0498cbe0-60ab-45be-984d-ded9dbcdc27d","dateTime":"2021-11-08T20:51:00.901Z","isRelevant":false},{"internal_node_id":"0.0-0.0-1.0","rt":32616.59999999404,"question_order":[0,1,2,3,4,5,6,7],"response":{"Q1":"No","Q2":"No","Q3":"No","Q4":"No","Q5":"No","Q6":"No","Q7":"Yes","Q0":"2"},"trial_type":"survey-multi-choice","time_elapsed":32621,"trial_index":0,"userId":"0498cbe0-60ab-45be-984d-ded9dbcdc27d","dateTime":"2021-11-08T20:51:33.521Z","isRelevant":true},{"ua":"Mozilla/5.0 (Windows NT 10.0; Win64; x64) AppleWebKit/537.36 (KHTML, like Gecko) Chrome/95.0.4638.69 Safari/537.36","userId":"0498cbe0-60ab-45be-984d-ded9dbcdc27d","dateTime":"2021-11-08T20:51:33.523Z","isRelevant":false},{"taskStarted":true,"userId":"0498cbe0-60ab-45be-984d-ded9dbcdc27d","dateTime":"2021-11-10T21:13:41.743Z","isRelevant":false},{"internal_node_id":"0.0-0.0-1.0","rt":22634.70000000298,"question_order":[0,1,2,3,4,5,6,7],"response":{"Q1":"No","Q2":"No","Q3":"Yes","Q4":"No","Q5":"No","Q6":"Yes","Q7":"Yes","Q0":"4"},"trial_type":"survey-multi-choice","time_elapsed":22638,"trial_index":0,"userId":"0498cbe0-60ab-45be-984d-ded9dbcdc27d","dateTime":"2021-11-10T21:14:04.381Z","isRelevant":true},{"ua":"Mozilla/5.0 (Windows NT 10.0; Win64; x64) AppleWebKit/537.36 (KHTML, like Gecko) Chrome/95.0.4638.69 Safari/537.36","userId":"0498cbe0-60ab-45be-984d-ded9dbcdc27d","dateTime":"2021-11-10T21:14:04.382Z","isRelevant":false}]
