[{"taskStarted":true,"userId":"524d2272-d17f-42aa-b335-772a7ac10972","dateTime":"2021-11-10T16:14:34.945Z","isRelevant":false},{"internal_node_id":"0.0-0.0-1.0","rt":129292,"question_order":[0,1,2,3,4,5,6,7,8,9,10,11,12,13,14,15,16,17,18,19,20],"response":{"Q1":"NEVER","Q2":"SOMETIMES","Q3":"NEVER","Q4":"SOMETIMES","Q5":"SOMETIMES","Q6":"NEVER","Q7":"SOMETIMES","Q8":"NEVER","Q9":"NEVER","Q20":"NEVER","Q11":"SOMETIMES","Q10":"SOMETIMES","Q13":"NEVER","Q12":"SOMETIMES","Q15":"SOMETIMES","Q14":"NEVER","Q17":"SOMETIMES","Q16":"NEVER","Q19":"NEVER","Q18":"OFTEN","Q0":"SOMETIMES"},"trial_type":"survey-multi-choice","time_elapsed":129302,"questions":["I found it hard to wind down","I was aware of dryness of my mouth","I couldn't seem to experience any positive feeling at all","I experienced breathing difficulty (e.g. excessively rapid breathing, breathlessness in the absence of physical exertion)","I found it difficult to work up the initiative to do things","I tended to over-react to situations","I experienced trembling (e.g., in the hands)","I felt that I was using a lot of nervous energy","I was worried about situations in which I might panic and make a fool of myself","I felt that I had nothing to look forward to","I found myself getting agitated","I found it difficult to relax","I felt down-hearted and blue","I was intolerant of anything that kept me from getting on with what I was doing","I felt I was close to panic","I was unable to become enthusiastic about anything","I felt I wasn't worth much as a person","I felt that I was rather touchy","I was aware of the action of my heart in the absence of physical exertion (e.g., sense of heart rate increase, heart missing a beat)","I felt scared without any good reason","I felt that life was meaningless"],"trial_index":0,"userId":"524d2272-d17f-42aa-b335-772a7ac10972","dateTime":"2021-11-10T16:16:44.247Z","isRelevant":true},{"ua":"Mozilla/5.0 (Macintosh; Intel Mac OS X 10.15; rv:94.0) Gecko/20100101 Firefox/94.0","userId":"524d2272-d17f-42aa-b335-772a7ac10972","dateTime":"2021-11-10T16:16:44.249Z","isRelevant":false},{"taskStarted":true,"userId":"118a2724-6420-41e6-af9f-42da893ea092","dateTime":"2021-11-07T01:27:12.428Z","isRelevant":false},{"internal_node_id":"0.0-0.0-1.0","rt":42735.40000000596,"question_order":[0,1,2,3,4,5,6,7,8,9,10,11,12,13,14,15,16,17,18,19,20],"response":{"Q1":"NEVER","Q2":"NEVER","Q3":"NEVER","Q4":"SOMETIMES","Q5":"SOMETIMES","Q6":"NEVER","Q7":"NEVER","Q8":"NEVER","Q9":"NEVER","Q20":"NEVER","Q11":"SOMETIMES","Q10":"SOMETIMES","Q13":"NEVER","Q12":"NEVER","Q15":"NEVER","Q14":"NEVER","Q17":"NEVER","Q16":"NEVER","Q19":"NEVER","Q18":"SOMETIMES","Q0":"SOMETIMES"},"trial_type":"survey-multi-choice","time_elapsed":42740,"questions":["I found it hard to wind down","I was aware of dryness of my mouth","I couldn't seem to experience any positive feeling at all","I experienced breathing difficulty (e.g. excessively rapid breathing, breathlessness in the absence of physical exertion)","I found it difficult to work up the initiative to do things","I tended to over-react to situations","I experienced trembling (e.g., in the hands)","I felt that I was using a lot of nervous energy","I was worried about situations in which I might panic and make a fool of myself","I felt that I had nothing to look forward to","I found myself getting agitated","I found it difficult to relax","I felt down-hearted and blue","I was intolerant of anything that kept me from getting on with what I was doing","I felt I was close to panic","I was unable to become enthusiastic about anything","I felt I wasn't worth much as a person","I felt that I was rather touchy","I was aware of the action of my heart in the absence of physical exertion (e.g., sense of heart rate increase, heart missing a beat)","I felt scared without any good reason","I felt that life was meaningless"],"trial_index":0,"userId":"118a2724-6420-41e6-af9f-42da893ea092","dateTime":"2021-11-07T01:27:55.167Z","isRelevant":true},{"ua":"Mozilla/5.0 (Macintosh; Intel Mac OS X 10_15_7) AppleWebKit/537.36 (KHTML, like Gecko) Chrome/95.0.4638.54 Safari/537.36","userId":"118a2724-6420-41e6-af9f-42da893ea092","dateTime":"2021-11-07T01:27:55.168Z","isRelevant":false},{"taskStarted":true,"userId":"118a2724-6420-41e6-af9f-42da893ea092","dateTime":"2021-11-09T06:30:20.178Z","isRelevant":false},{"internal_node_id":"0.0-0.0-1.0","rt":36762.30000001192,"question_order":[0,1,2,3,4,5,6,7,8,9,10,11,12,13,14,15,16,17,18,19,20],"response":{"Q1":"SOMETIMES","Q2":"NEVER","Q3":"NEVER","Q4":"NEVER","Q5":"NEVER","Q6":"NEVER","Q7":"NEVER","Q8":"NEVER","Q9":"NEVER","Q20":"NEVER","Q11":"SOMETIMES","Q10":"NEVER","Q13":"NEVER","Q12":"NEVER","Q15":"NEVER","Q14":"NEVER","Q17":"NEVER","Q16":"NEVER","Q19":"NEVER","Q18":"NEVER","Q0":"NEVER"},"trial_type":"survey-multi-choice","time_elapsed":36767,"questions":["I found it hard to wind down","I was aware of dryness of my mouth","I couldn't seem to experience any positive feeling at all","I experienced breathing difficulty (e.g. excessively rapid breathing, breathlessness in the absence of physical exertion)","I found it difficult to work up the initiative to do things","I tended to over-react to situations","I experienced trembling (e.g., in the hands)","I felt that I was using a lot of nervous energy","I was worried about situations in which I might panic and make a fool of myself","I felt that I had nothing to look forward to","I found myself getting agitated","I found it difficult to relax","I felt down-hearted and blue","I was intolerant of anything that kept me from getting on with what I was doing","I felt I was close to panic","I was unable to become enthusiastic about anything","I felt I wasn't worth much as a person","I felt that I was rather touchy","I was aware of the action of my heart in the absence of physical exertion (e.g., sense of heart rate increase, heart missing a beat)","I felt scared without any good reason","I felt that life was meaningless"],"trial_index":0,"userId":"118a2724-6420-41e6-af9f-42da893ea092","dateTime":"2021-11-09T06:30:56.946Z","isRelevant":true},{"ua":"Mozilla/5.0 (Macintosh; Intel Mac OS X 10_15_7) AppleWebKit/537.36 (KHTML, like Gecko) Chrome/95.0.4638.54 Safari/537.36","userId":"118a2724-6420-41e6-af9f-42da893ea092","dateTime":"2021-11-09T06:30:56.949Z","isRelevant":false},{"taskStarted":true,"userId":"b07d920b-a11a-422a-a359-694608c3cd00","dateTime":"2021-11-16T18:17:36.498Z","isRelevant":false},{"internal_node_id":"0.0-0.0-1.0","rt":118807.10000002384,"question_order":[0,1,2,3,4,5,6,7,8,9,10,11,12,13,14,15,16,17,18,19,20],"response":{"Q1":"SOMETIMES","Q2":"NEVER","Q3":"NEVER","Q4":"NEVER","Q5":"NEVER","Q6":"NEVER","Q7":"SOMETIMES","Q8":"NEVER","Q9":"NEVER","Q20":"NEVER","Q11":"NEVER","Q10":"NEVER","Q13":"NEVER","Q12":"NEVER","Q15":"NEVER","Q14":"NEVER","Q17":"SOMETIMES","Q16":"NEVER","Q19":"NEVER","Q18":"SOMETIMES","Q0":"NEVER"},"trial_type":"survey-multi-choice","time_elapsed":118805,"questions":["I found it hard to wind down","I was aware of dryness of my mouth","I couldn't seem to experience any positive feeling at all","I experienced breathing difficulty (e.g. excessively rapid breathing, breathlessness in the absence of physical exertion)","I found it difficult to work up the initiative to do things","I tended to over-react to situations","I experienced trembling (e.g., in the hands)","I felt that I was using a lot of nervous energy","I was worried about situations in which I might panic and make a fool of myself","I felt that I had nothing to look forward to","I found myself getting agitated","I found it difficult to relax","I felt down-hearted and blue","I was intolerant of anything that kept me from getting on with what I was doing","I felt I was close to panic","I was unable to become enthusiastic about anything","I felt I wasn't worth much as a person","I felt that I was rather touchy","I was aware of the action of my heart in the absence of physical exertion (e.g., sense of heart rate increase, heart missing a beat)","I felt scared without any good reason","I felt that life was meaningless"],"trial_index":0,"userId":"b07d920b-a11a-422a-a359-694608c3cd00","dateTime":"2021-11-16T18:19:35.302Z","isRelevant":true},{"ua":"Mozilla/5.0 (Macintosh; Intel Mac OS X 10_15_7) AppleWebKit/537.36 (KHTML, like Gecko) Chrome/95.0.4638.54 Safari/537.36","userId":"b07d920b-a11a-422a-a359-694608c3cd00","dateTime":"2021-11-16T18:19:35.304Z","isRelevant":false},{"taskStarted":true,"userId":"22463d21-44f5-47c7-9ae1-547c9124d869","dateTime":"2021-11-09T19:02:31.290Z","isRelevant":false},{"internal_node_id":"0.0-0.0-1.0","rt":65933,"question_order":[0,1,2,3,4,5,6,7,8,9,10,11,12,13,14,15,16,17,18,19,20],"response":{"Q1":"NEVER","Q2":"SOMETIMES","Q3":"NEVER","Q4":"SOMETIMES","Q5":"SOMETIMES","Q6":"SOMETIMES","Q7":"SOMETIMES","Q8":"SOMETIMES","Q9":"SOMETIMES","Q20":"NEVER","Q11":"NEVER","Q10":"SOMETIMES","Q13":"SOMETIMES","Q12":"SOMETIMES","Q15":"SOMETIMES","Q14":"SOMETIMES","Q17":"NEVER","Q16":"SOMETIMES","Q19":"SOMETIMES","Q18":"SOMETIMES","Q0":"SOMETIMES"},"trial_type":"survey-multi-choice","time_elapsed":65939,"questions":["I found it hard to wind down","I was aware of dryness of my mouth","I couldn't seem to experience any positive feeling at all","I experienced breathing difficulty (e.g. excessively rapid breathing, breathlessness in the absence of physical exertion)","I found it difficult to work up the initiative to do things","I tended to over-react to situations","I experienced trembling (e.g., in the hands)","I felt that I was using a lot of nervous energy","I was worried about situations in which I might panic and make a fool of myself","I felt that I had nothing to look forward to","I found myself getting agitated","I found it difficult to relax","I felt down-hearted and blue","I was intolerant of anything that kept me from getting on with what I was doing","I felt I was close to panic","I was unable to become enthusiastic about anything","I felt I wasn't worth much as a person","I felt that I was rather touchy","I was aware of the action of my heart in the absence of physical exertion (e.g., sense of heart rate increase, heart missing a beat)","I felt scared without any good reason","I felt that life was meaningless"],"trial_index":0,"userId":"22463d21-44f5-47c7-9ae1-547c9124d869","dateTime":"2021-11-09T19:03:37.229Z","isRelevant":true},{"ua":"Mozilla/5.0 (Macintosh; Intel Mac OS X 10_15_7) AppleWebKit/537.36 (KHTML, like Gecko) Chrome/94.0.4606.71 Safari/537.36","userId":"22463d21-44f5-47c7-9ae1-547c9124d869","dateTime":"2021-11-09T19:03:37.230Z","isRelevant":false},{"taskStarted":true,"userId":"1e7afe8d-bc84-463f-bd6e-c9bd987464be","dateTime":"2021-11-17T15:52:44.177Z","isRelevant":false},{"internal_node_id":"0.0-0.0-1.0","rt":169592,"question_order":[0,1,2,3,4,5,6,7,8,9,10,11,12,13,14,15,16,17,18,19,20],"response":{"Q1":"NEVER","Q2":"SOMETIMES","Q3":"NEVER","Q4":"SOMETIMES","Q5":"SOMETIMES","Q6":"NEVER","Q7":"SOMETIMES","Q8":"SOMETIMES","Q9":"SOMETIMES","Q20":"NEVER","Q11":"SOMETIMES","Q10":"SOMETIMES","Q13":"SOMETIMES","Q12":"SOMETIMES","Q15":"SOMETIMES","Q14":"NEVER","Q17":"NEVER","Q16":"SOMETIMES","Q19":"NEVER","Q18":"NEVER","Q0":"SOMETIMES"},"trial_type":"survey-multi-choice","time_elapsed":169598,"questions":["I found it hard to wind down","I was aware of dryness of my mouth","I couldn't seem to experience any positive feeling at all","I experienced breathing difficulty (e.g. excessively rapid breathing, breathlessness in the absence of physical exertion)","I found it difficult to work up the initiative to do things","I tended to over-react to situations","I experienced trembling (e.g., in the hands)","I felt that I was using a lot of nervous energy","I was worried about situations in which I might panic and make a fool of myself","I felt that I had nothing to look forward to","I found myself getting agitated","I found it difficult to relax","I felt down-hearted and blue","I was intolerant of anything that kept me from getting on with what I was doing","I felt I was close to panic","I was unable to become enthusiastic about anything","I felt I wasn't worth much as a person","I felt that I was rather touchy","I was aware of the action of my heart in the absence of physical exertion (e.g., sense of heart rate increase, heart missing a beat)","I felt scared without any good reason","I felt that life was meaningless"],"trial_index":0,"userId":"1e7afe8d-bc84-463f-bd6e-c9bd987464be","dateTime":"2021-11-17T15:55:33.775Z","isRelevant":true},{"ua":"Mozilla/5.0 (Windows NT 10.0; Win64; x64; rv:91.0) Gecko/20100101 Firefox/91.0","userId":"1e7afe8d-bc84-463f-bd6e-c9bd987464be","dateTime":"2021-11-17T15:55:33.778Z","isRelevant":false},{"taskStarted":true,"userId":"165fd106-8a5c-4705-8441-3beaa87dbda4","dateTime":"2021-11-15T18:04:30.226Z","isRelevant":false},{"internal_node_id":"0.0-0.0-1.0","rt":131453,"question_order":[0,1,2,3,4,5,6,7,8,9,10,11,12,13,14,15,16,17,18,19,20],"response":{"Q1":"SOMETIMES","Q2":"NEVER","Q3":"NEVER","Q4":"SOMETIMES","Q5":"SOMETIMES","Q6":"NEVER","Q7":"OFTEN","Q8":"SOMETIMES","Q9":"SOMETIMES","Q20":"NEVER","Q11":"ALMOST ALWAYS","Q10":"SOMETIMES","Q13":"OFTEN","Q12":"OFTEN","Q15":"SOMETIMES","Q14":"SOMETIMES","Q17":"SOMETIMES","Q16":"SOMETIMES","Q19":"NEVER","Q18":"OFTEN","Q0":"ALMOST ALWAYS"},"trial_type":"survey-multi-choice","time_elapsed":131462,"questions":["I found it hard to wind down","I was aware of dryness of my mouth","I couldn't seem to experience any positive feeling at all","I experienced breathing difficulty (e.g. excessively rapid breathing, breathlessness in the absence of physical exertion)","I found it difficult to work up the initiative to do things","I tended to over-react to situations","I experienced trembling (e.g., in the hands)","I felt that I was using a lot of nervous energy","I was worried about situations in which I might panic and make a fool of myself","I felt that I had nothing to look forward to","I found myself getting agitated","I found it difficult to relax","I felt down-hearted and blue","I was intolerant of anything that kept me from getting on with what I was doing","I felt I was close to panic","I was unable to become enthusiastic about anything","I felt I wasn't worth much as a person","I felt that I was rather touchy","I was aware of the action of my heart in the absence of physical exertion (e.g., sense of heart rate increase, heart missing a beat)","I felt scared without any good reason","I felt that life was meaningless"],"trial_index":0,"userId":"165fd106-8a5c-4705-8441-3beaa87dbda4","dateTime":"2021-11-15T18:06:41.688Z","isRelevant":true},{"ua":"Mozilla/5.0 (Macintosh; Intel Mac OS X 10_15_7) AppleWebKit/605.1.15 (KHTML, like Gecko) Version/15.0 Safari/605.1.15","userId":"165fd106-8a5c-4705-8441-3beaa87dbda4","dateTime":"2021-11-15T18:06:41.692Z","isRelevant":false},{"taskStarted":true,"userId":"0e09ed0f-3833-4304-9c23-ab6f5962e14c","dateTime":"2021-11-04T18:42:13.431Z","isRelevant":false},{"internal_node_id":"0.0-0.0-1.0","question_order":[0,1,2,3,4,5,6,7,8,9,10,11,12,13,14,15,16,17,18,19,20],"questions":["I found it hard to wind down","I was aware of dryness of my mouth","I couldn't seem to experience any positive feeling at all","I experienced breathing difficulty (e.g. excessively rapid breathing, breathlessness in the absence of physical exertion)","I found it difficult to work up the initiative to do things","I tended to over-react to situations","I experienced trembling (e.g., in the hands)","I felt that I was using a lot of nervous energy","I was worried about situations in which I might panic and make a fool of myself","I felt that I had nothing to look forward to","I found myself getting agitated","I found it difficult to relax","I felt down-hearted and blue","I was intolerant of anything that kept me from getting on with what I was doing","I felt I was close to panic","I was unable to become enthusiastic about anything","I felt I wasn't worth much as a person","I felt that I was rather touchy","I was aware of the action of my heart in the absence of physical exertion (e.g., sense of heart rate increase, heart missing a beat)","I felt scared without any good reason","I felt that life was meaningless"],"response":{"Q0":"SOMETIMES","Q1":"SOMETIMES","Q10":"SOMETIMES","Q11":"OFTEN","Q12":"SOMETIMES","Q13":"SOMETIMES","Q14":"NEVER","Q15":"NEVER","Q16":"SOMETIMES","Q17":"SOMETIMES","Q18":"NEVER","Q19":"NEVER","Q2":"SOMETIMES","Q20":"NEVER","Q3":"SOMETIMES","Q4":"SOMETIMES","Q5":"SOMETIMES","Q6":"OFTEN","Q7":"OFTEN","Q8":"OFTEN","Q9":"NEVER"},"rt":41176,"time_elapsed":41179,"trial_index":0,"trial_type":"survey-multi-choice","userId":"0e09ed0f-3833-4304-9c23-ab6f5962e14c","dateTime":"2021-11-04T18:42:54.609Z","isRelevant":true},{"ua":"Mozilla/5.0 (Windows NT 10.0; Win64; x64) AppleWebKit/537.36 (KHTML, like Gecko) Chrome/95.0.4638.69 Safari/537.36","userId":"0e09ed0f-3833-4304-9c23-ab6f5962e14c","dateTime":"2021-11-04T18:42:54.610Z","isRelevant":false},{"taskStarted":true,"userId":"a39c0907-29e6-4c85-9188-b21b04ca17a6","dateTime":"2021-11-03T22:06:01.400Z","isRelevant":false},{"internal_node_id":"0.0-0.0-1.0","question_order":[0,1,2,3,4,5,6,7,8,9,10,11,12,13,14,15,16,17,18,19,20],"questions":["I found it hard to wind down","I was aware of dryness of my mouth","I couldn't seem to experience any positive feeling at all","I experienced breathing difficulty (e.g. excessively rapid breathing, breathlessness in the absence of physical exertion)","I found it difficult to work up the initiative to do things","I tended to over-react to situations","I experienced trembling (e.g., in the hands)","I felt that I was using a lot of nervous energy","I was worried about situations in which I might panic and make a fool of myself","I felt that I had nothing to look forward to","I found myself getting agitated","I found it difficult to relax","I felt down-hearted and blue","I was intolerant of anything that kept me from getting on with what I was doing","I felt I was close to panic","I was unable to become enthusiastic about anything","I felt I wasn't worth much as a person","I felt that I was rather touchy","I was aware of the action of my heart in the absence of physical exertion (e.g., sense of heart rate increase, heart missing a beat)","I felt scared without any good reason","I felt that life was meaningless"],"response":{"Q0":"NEVER","Q1":"NEVER","Q10":"NEVER","Q11":"NEVER","Q12":"NEVER","Q13":"NEVER","Q14":"NEVER","Q15":"NEVER","Q16":"NEVER","Q17":"NEVER","Q18":"NEVER","Q19":"NEVER","Q2":"NEVER","Q20":"NEVER","Q3":"NEVER","Q4":"NEVER","Q5":"NEVER","Q6":"NEVER","Q7":"OFTEN","Q8":"NEVER","Q9":"NEVER"},"rt":82675.40000009537,"time_elapsed":82684,"trial_index":0,"trial_type":"survey-multi-choice","userId":"a39c0907-29e6-4c85-9188-b21b04ca17a6","dateTime":"2021-11-03T22:07:24.085Z","isRelevant":true},{"ua":"Mozilla/5.0 (Macintosh; Intel Mac OS X 10_15_7) AppleWebKit/537.36 (KHTML, like Gecko) Chrome/95.0.4638.54 Safari/537.36","userId":"a39c0907-29e6-4c85-9188-b21b04ca17a6","dateTime":"2021-11-03T22:07:24.087Z","isRelevant":false},{"taskStarted":true,"userId":"792390ab-56ba-47a8-8c3c-1ea452762f1c","dateTime":"2021-11-11T01:11:18.649Z","isRelevant":false},{"internal_node_id":"0.0-0.0-1.0","rt":200077,"question_order":[0,1,2,3,4,5,6,7,8,9,10,11,12,13,14,15,16,17,18,19,20],"response":{"Q1":"NEVER","Q2":"NEVER","Q3":"NEVER","Q4":"NEVER","Q5":"SOMETIMES","Q6":"NEVER","Q7":"NEVER","Q8":"NEVER","Q9":"NEVER","Q20":"NEVER","Q11":"NEVER","Q10":"NEVER","Q13":"NEVER","Q12":"NEVER","Q15":"NEVER","Q14":"NEVER","Q17":"NEVER","Q16":"NEVER","Q19":"NEVER","Q18":"NEVER","Q0":"NEVER"},"trial_type":"survey-multi-choice","time_elapsed":200099,"questions":["I found it hard to wind down","I was aware of dryness of my mouth","I couldn't seem to experience any positive feeling at all","I experienced breathing difficulty (e.g. excessively rapid breathing, breathlessness in the absence of physical exertion)","I found it difficult to work up the initiative to do things","I tended to over-react to situations","I experienced trembling (e.g., in the hands)","I felt that I was using a lot of nervous energy","I was worried about situations in which I might panic and make a fool of myself","I felt that I had nothing to look forward to","I found myself getting agitated","I found it difficult to relax","I felt down-hearted and blue","I was intolerant of anything that kept me from getting on with what I was doing","I felt I was close to panic","I was unable to become enthusiastic about anything","I felt I wasn't worth much as a person","I felt that I was rather touchy","I was aware of the action of my heart in the absence of physical exertion (e.g., sense of heart rate increase, heart missing a beat)","I felt scared without any good reason","I felt that life was meaningless"],"trial_index":0,"userId":"792390ab-56ba-47a8-8c3c-1ea452762f1c","dateTime":"2021-11-11T01:14:38.749Z","isRelevant":true},{"ua":"Mozilla/5.0 (Windows NT 10.0; Win64; x64) AppleWebKit/537.36 (KHTML, like Gecko) Chrome/95.0.4638.69 Safari/537.36 Edg/95.0.1020.44","userId":"792390ab-56ba-47a8-8c3c-1ea452762f1c","dateTime":"2021-11-11T01:14:38.759Z","isRelevant":false},{"taskStarted":true,"userId":"ed732f11-6a56-4990-9a8d-9465c81770fb","dateTime":"2021-11-15T19:12:56.473Z","isRelevant":false},{"trial_index":0,"internal_node_id":"0.0-0.0-0.0-0.0","success":true,"trial_type":"fullscreen","time_elapsed":1128,"userId":"ed732f11-6a56-4990-9a8d-9465c81770fb","dateTime":"2021-11-15T19:12:57.601Z","isRelevant":false},{"taskStarted":true,"userId":"ed732f11-6a56-4990-9a8d-9465c81770fb","dateTime":"2021-11-15T19:17:31.565Z","isRelevant":false},{"taskStarted":true,"userId":"ed732f11-6a56-4990-9a8d-9465c81770fb","dateTime":"2021-11-15T19:18:44.364Z","isRelevant":false},{"taskStarted":true,"userId":"ed732f11-6a56-4990-9a8d-9465c81770fb","dateTime":"2021-11-15T19:20:19.935Z","isRelevant":false},{"taskStarted":true,"userId":"ed732f11-6a56-4990-9a8d-9465c81770fb","dateTime":"2021-11-15T19:21:17.693Z","isRelevant":false},{"trial_index":0,"internal_node_id":"0.0-0.0-0.0-0.0","success":true,"trial_type":"fullscreen","time_elapsed":2084,"userId":"ed732f11-6a56-4990-9a8d-9465c81770fb","dateTime":"2021-11-15T19:21:19.778Z","isRelevant":false},{"taskStarted":true,"userId":"ed732f11-6a56-4990-9a8d-9465c81770fb","dateTime":"2021-11-15T19:21:24.432Z","isRelevant":false},{"trial_index":0,"internal_node_id":"0.0-0.0-0.0-0.0","success":true,"trial_type":"fullscreen","time_elapsed":1789,"userId":"ed732f11-6a56-4990-9a8d-9465c81770fb","dateTime":"2021-11-15T19:21:26.221Z","isRelevant":false},{"taskStarted":true,"userId":"ed732f11-6a56-4990-9a8d-9465c81770fb","dateTime":"2021-11-15T20:25:33.154Z","isRelevant":false},{"taskStarted":true,"userId":"ed732f11-6a56-4990-9a8d-9465c81770fb","dateTime":"2021-11-16T17:13:31.457Z","isRelevant":false},{"taskStarted":true,"userId":"ed732f11-6a56-4990-9a8d-9465c81770fb","dateTime":"2021-11-16T17:51:25.359Z","isRelevant":false},{"taskStarted":true,"userId":"ed732f11-6a56-4990-9a8d-9465c81770fb","dateTime":"2021-11-16T17:56:15.365Z","isRelevant":false},{"taskStarted":true,"userId":"ed732f11-6a56-4990-9a8d-9465c81770fb","dateTime":"2021-11-16T19:32:54.445Z","isRelevant":false},{"taskStarted":true,"userId":"ed732f11-6a56-4990-9a8d-9465c81770fb","dateTime":"2021-11-16T19:52:10.256Z","isRelevant":false},{"taskStarted":true,"userId":"ed732f11-6a56-4990-9a8d-9465c81770fb","dateTime":"2021-11-16T19:55:29.378Z","isRelevant":false},{"taskStarted":true,"userId":"ed732f11-6a56-4990-9a8d-9465c81770fb","dateTime":"2021-11-16T20:19:28.587Z","isRelevant":false},{"taskStarted":true,"userId":"ed732f11-6a56-4990-9a8d-9465c81770fb","dateTime":"2021-11-16T20:20:36.776Z","isRelevant":false},{"taskStarted":true,"userId":"ed732f11-6a56-4990-9a8d-9465c81770fb","dateTime":"2021-11-16T20:21:07.335Z","isRelevant":false},{"internal_node_id":"0.0-0.0-0.0-0.0","success":true,"trial_type":"fullscreen","failed_images":[],"time_elapsed":141,"trial_index":0,"failed_audio":[],"failed_video":[],"timeout":false,"userId":"ed732f11-6a56-4990-9a8d-9465c81770fb","dateTime":"2021-11-16T20:21:07.476Z","isRelevant":false},{"taskStarted":true,"userId":"ed732f11-6a56-4990-9a8d-9465c81770fb","dateTime":"2021-11-23T18:31:17.286Z","isRelevant":false},{"trial_index":0,"internal_node_id":"0.0-0.0-0.0-0.0","success":true,"trial_type":"fullscreen","time_elapsed":2310,"userId":"ed732f11-6a56-4990-9a8d-9465c81770fb","dateTime":"2021-11-23T18:31:19.597Z","isRelevant":false},{"internal_node_id":"0.0-0.0-1.0","rt":29017,"question_order":[0,1,2,3,4,5,6,7,8,9,10,11,12,13,14,15,16,17,18,19,20],"response":{"Q1":"NEVER","Q2":"ALMOST ALWAYS","Q3":"SOMETIMES","Q4":"ALMOST ALWAYS","Q5":"ALMOST ALWAYS","Q6":"SOMETIMES","Q7":"SOMETIMES","Q8":"SOMETIMES","Q9":"NEVER","Q20":"SOMETIMES","Q11":"ALMOST ALWAYS","Q10":"OFTEN","Q13":"OFTEN","Q12":"OFTEN","Q15":"SOMETIMES","Q14":"OFTEN","Q17":"SOMETIMES","Q16":"SOMETIMES","Q19":"SOMETIMES","Q18":"SOMETIMES","Q0":"NEVER"},"trial_type":"survey-multi-choice","time_elapsed":31343,"questions":["I found it hard to wind down","I was aware of dryness of my mouth","I couldn't seem to experience any positive feeling at all","I experienced breathing difficulty (e.g. excessively rapid breathing, breathlessness in the absence of physical exertion)","I found it difficult to work up the initiative to do things","I tended to over-react to situations","I experienced trembling (e.g., in the hands)","I felt that I was using a lot of nervous energy","I was worried about situations in which I might panic and make a fool of myself","I felt that I had nothing to look forward to","I found myself getting agitated","I found it difficult to relax","I felt down-hearted and blue","I was intolerant of anything that kept me from getting on with what I was doing","I felt I was close to panic","I was unable to become enthusiastic about anything","I felt I wasn't worth much as a person","I felt that I was rather touchy","I was aware of the action of my heart in the absence of physical exertion (e.g., sense of heart rate increase, heart missing a beat)","I felt scared without any good reason","I felt that life was meaningless"],"trial_index":1,"userId":"ed732f11-6a56-4990-9a8d-9465c81770fb","dateTime":"2021-11-23T18:31:48.629Z","isRelevant":true},{"ua":"Mozilla/5.0 (Macintosh; Intel Mac OS X 10.13; rv:94.0) Gecko/20100101 Firefox/94.0","screen":"1920x1200","userId":"ed732f11-6a56-4990-9a8d-9465c81770fb","dateTime":"2021-11-23T18:31:48.635Z","isRelevant":false},{"taskStarted":true,"userId":"ed732f11-6a56-4990-9a8d-9465c81770fb","dateTime":"2021-11-23T19:16:09.973Z","isRelevant":false},{"taskStarted":true,"userId":"ed732f11-6a56-4990-9a8d-9465c81770fb","dateTime":"2021-11-23T21:16:19.065Z","isRelevant":false},{"taskStarted":true,"userId":"ed732f11-6a56-4990-9a8d-9465c81770fb","dateTime":"2021-11-23T21:20:04.505Z","isRelevant":false},{"taskStarted":true,"userId":"ed732f11-6a56-4990-9a8d-9465c81770fb","dateTime":"2021-11-23T21:32:49.990Z","isRelevant":false},{"taskStarted":true,"userId":"ed732f11-6a56-4990-9a8d-9465c81770fb","dateTime":"2021-11-23T21:33:40.007Z","isRelevant":false},{"taskStarted":true,"userId":"ed732f11-6a56-4990-9a8d-9465c81770fb","dateTime":"2021-11-23T21:35:35.438Z","isRelevant":false},{"taskStarted":true,"userId":"ed732f11-6a56-4990-9a8d-9465c81770fb","dateTime":"2021-11-23T21:36:13.177Z","isRelevant":false},{"taskStarted":true,"userId":"ed732f11-6a56-4990-9a8d-9465c81770fb","dateTime":"2021-11-23T21:56:57.268Z","isRelevant":false},{"taskStarted":true,"userId":"ed732f11-6a56-4990-9a8d-9465c81770fb","dateTime":"2021-11-23T21:57:00.360Z","isRelevant":false},{"taskStarted":true,"userId":"6079389f-5d71-4087-9a91-f7e150dec265","dateTime":"2021-11-09T20:00:24.962Z","isRelevant":false},{"internal_node_id":"0.0-0.0-1.0","rt":112607.70000004768,"question_order":[0,1,2,3,4,5,6,7,8,9,10,11,12,13,14,15,16,17,18,19,20],"response":{"Q1":"NEVER","Q2":"NEVER","Q3":"NEVER","Q4":"SOMETIMES","Q5":"SOMETIMES","Q6":"NEVER","Q7":"SOMETIMES","Q8":"NEVER","Q9":"NEVER","Q20":"NEVER","Q11":"SOMETIMES","Q10":"NEVER","Q13":"SOMETIMES","Q12":"SOMETIMES","Q15":"SOMETIMES","Q14":"NEVER","Q17":"SOMETIMES","Q16":"SOMETIMES","Q19":"NEVER","Q18":"NEVER","Q0":"SOMETIMES"},"trial_type":"survey-multi-choice","time_elapsed":112614,"questions":["I found it hard to wind down","I was aware of dryness of my mouth","I couldn't seem to experience any positive feeling at all","I experienced breathing difficulty (e.g. excessively rapid breathing, breathlessness in the absence of physical exertion)","I found it difficult to work up the initiative to do things","I tended to over-react to situations","I experienced trembling (e.g., in the hands)","I felt that I was using a lot of nervous energy","I was worried about situations in which I might panic and make a fool of myself","I felt that I had nothing to look forward to","I found myself getting agitated","I found it difficult to relax","I felt down-hearted and blue","I was intolerant of anything that kept me from getting on with what I was doing","I felt I was close to panic","I was unable to become enthusiastic about anything","I felt I wasn't worth much as a person","I felt that I was rather touchy","I was aware of the action of my heart in the absence of physical exertion (e.g., sense of heart rate increase, heart missing a beat)","I felt scared without any good reason","I felt that life was meaningless"],"trial_index":0,"userId":"6079389f-5d71-4087-9a91-f7e150dec265","dateTime":"2021-11-09T20:02:17.575Z","isRelevant":true},{"ua":"Mozilla/5.0 (Windows NT 10.0; Win64; x64) AppleWebKit/537.36 (KHTML, like Gecko) Chrome/95.0.4638.69 Safari/537.36","userId":"6079389f-5d71-4087-9a91-f7e150dec265","dateTime":"2021-11-09T20:02:17.577Z","isRelevant":false},{"taskStarted":true,"userId":"8bd2c88d-a06a-48d4-8311-0ed11e6b11d6","dateTime":"2021-11-15T23:54:28.309Z","isRelevant":false},{"internal_node_id":"0.0-0.0-1.0","rt":232171.90000009537,"question_order":[0,1,2,3,4,5,6,7,8,9,10,11,12,13,14,15,16,17,18,19,20],"response":{"Q1":"SOMETIMES","Q2":"SOMETIMES","Q3":"SOMETIMES","Q4":"SOMETIMES","Q5":"SOMETIMES","Q6":"SOMETIMES","Q7":"SOMETIMES","Q8":"SOMETIMES","Q9":"SOMETIMES","Q20":"SOMETIMES","Q11":"SOMETIMES","Q10":"SOMETIMES","Q13":"SOMETIMES","Q12":"SOMETIMES","Q15":"SOMETIMES","Q14":"SOMETIMES","Q17":"SOMETIMES","Q16":"SOMETIMES","Q19":"SOMETIMES","Q18":"SOMETIMES","Q0":"SOMETIMES"},"trial_type":"survey-multi-choice","time_elapsed":232202,"questions":["I found it hard to wind down","I was aware of dryness of my mouth","I couldn't seem to experience any positive feeling at all","I experienced breathing difficulty (e.g. excessively rapid breathing, breathlessness in the absence of physical exertion)","I found it difficult to work up the initiative to do things","I tended to over-react to situations","I experienced trembling (e.g., in the hands)","I felt that I was using a lot of nervous energy","I was worried about situations in which I might panic and make a fool of myself","I felt that I had nothing to look forward to","I found myself getting agitated","I found it difficult to relax","I felt down-hearted and blue","I was intolerant of anything that kept me from getting on with what I was doing","I felt I was close to panic","I was unable to become enthusiastic about anything","I felt I wasn't worth much as a person","I felt that I was rather touchy","I was aware of the action of my heart in the absence of physical exertion (e.g., sense of heart rate increase, heart missing a beat)","I felt scared without any good reason","I felt that life was meaningless"],"trial_index":0,"userId":"8bd2c88d-a06a-48d4-8311-0ed11e6b11d6","dateTime":"2021-11-15T23:58:20.512Z","isRelevant":true},{"ua":"Mozilla/5.0 (Macintosh; Intel Mac OS X 10_13_6) AppleWebKit/537.36 (KHTML, like Gecko) Chrome/96.0.4664.45 Safari/537.36","userId":"8bd2c88d-a06a-48d4-8311-0ed11e6b11d6","dateTime":"2021-11-15T23:58:20.538Z","isRelevant":false},{"taskStarted":true,"userId":"0d940b94-1baf-43bf-a981-857ddf728e29","dateTime":"2021-11-09T17:23:27.607Z","isRelevant":false},{"internal_node_id":"0.0-0.0-1.0","rt":94594,"question_order":[0,1,2,3,4,5,6,7,8,9,10,11,12,13,14,15,16,17,18,19,20],"response":{"Q1":"NEVER","Q2":"SOMETIMES","Q3":"NEVER","Q4":"NEVER","Q5":"NEVER","Q6":"NEVER","Q7":"NEVER","Q8":"NEVER","Q9":"NEVER","Q20":"NEVER","Q11":"SOMETIMES","Q10":"SOMETIMES","Q13":"SOMETIMES","Q12":"SOMETIMES","Q15":"SOMETIMES","Q14":"NEVER","Q17":"NEVER","Q16":"NEVER","Q19":"NEVER","Q18":"NEVER","Q0":"SOMETIMES"},"trial_type":"survey-multi-choice","time_elapsed":94598,"questions":["I found it hard to wind down","I was aware of dryness of my mouth","I couldn't seem to experience any positive feeling at all","I experienced breathing difficulty (e.g. excessively rapid breathing, breathlessness in the absence of physical exertion)","I found it difficult to work up the initiative to do things","I tended to over-react to situations","I experienced trembling (e.g., in the hands)","I felt that I was using a lot of nervous energy","I was worried about situations in which I might panic and make a fool of myself","I felt that I had nothing to look forward to","I found myself getting agitated","I found it difficult to relax","I felt down-hearted and blue","I was intolerant of anything that kept me from getting on with what I was doing","I felt I was close to panic","I was unable to become enthusiastic about anything","I felt I wasn't worth much as a person","I felt that I was rather touchy","I was aware of the action of my heart in the absence of physical exertion (e.g., sense of heart rate increase, heart missing a beat)","I felt scared without any good reason","I felt that life was meaningless"],"trial_index":0,"userId":"0d940b94-1baf-43bf-a981-857ddf728e29","dateTime":"2021-11-09T17:25:02.205Z","isRelevant":true},{"ua":"Mozilla/5.0 (Macintosh; Intel Mac OS X 10.15; rv:94.0) Gecko/20100101 Firefox/94.0","userId":"0d940b94-1baf-43bf-a981-857ddf728e29","dateTime":"2021-11-09T17:25:02.209Z","isRelevant":false},{"taskStarted":true,"userId":"0498cbe0-60ab-45be-984d-ded9dbcdc27d","dateTime":"2021-11-05T17:00:18.510Z","isRelevant":false},{"internal_node_id":"0.0-0.0-1.0","question_order":[0,1,2,3,4,5,6,7,8,9,10,11,12,13,14,15,16,17,18,19,20],"questions":["I found it hard to wind down","I was aware of dryness of my mouth","I couldn't seem to experience any positive feeling at all","I experienced breathing difficulty (e.g. excessively rapid breathing, breathlessness in the absence of physical exertion)","I found it difficult to work up the initiative to do things","I tended to over-react to situations","I experienced trembling (e.g., in the hands)","I felt that I was using a lot of nervous energy","I was worried about situations in which I might panic and make a fool of myself","I felt that I had nothing to look forward to","I found myself getting agitated","I found it difficult to relax","I felt down-hearted and blue","I was intolerant of anything that kept me from getting on with what I was doing","I felt I was close to panic","I was unable to become enthusiastic about anything","I felt I wasn't worth much as a person","I felt that I was rather touchy","I was aware of the action of my heart in the absence of physical exertion (e.g., sense of heart rate increase, heart missing a beat)","I felt scared without any good reason","I felt that life was meaningless"],"response":{"Q0":"SOMETIMES","Q1":"NEVER","Q10":"SOMETIMES","Q11":"SOMETIMES","Q12":"SOMETIMES","Q13":"SOMETIMES","Q14":"NEVER","Q15":"NEVER","Q16":"NEVER","Q17":"NEVER","Q18":"NEVER","Q19":"NEVER","Q2":"SOMETIMES","Q20":"NEVER","Q3":"NEVER","Q4":"SOMETIMES","Q5":"NEVER","Q6":"NEVER","Q7":"SOMETIMES","Q8":"NEVER","Q9":"NEVER"},"rt":81723.19999980927,"time_elapsed":81727,"trial_index":0,"trial_type":"survey-multi-choice","userId":"0498cbe0-60ab-45be-984d-ded9dbcdc27d","dateTime":"2021-11-05T17:01:40.237Z","isRelevant":true},{"ua":"Mozilla/5.0 (Windows NT 10.0; Win64; x64) AppleWebKit/537.36 (KHTML, like Gecko) Chrome/95.0.4638.69 Safari/537.36","userId":"0498cbe0-60ab-45be-984d-ded9dbcdc27d","dateTime":"2021-11-05T17:01:40.238Z","isRelevant":false}]
