[{"taskStarted":true,"dateTime":"2021-11-11T15:52:57.818Z","isRelevant":false},{"trial_index":0,"internal_node_id":"0.0-0.0-0.0-0.0","success":true,"trial_type":"fullscreen","time_elapsed":2909,"dateTime":"2021-11-11T15:53:00.725Z","isRelevant":false},{"trial_index":1,"internal_node_id":"0.0-0.0-1.0","rt":221895,"response":{"covid_vax":"yes","ethnicity":"prefer_not_to_state","med1_dose":"","estrogen_replacement_med":"on","weekly_alcoholic_drinks":"1","med1_name":"","med4_name":"","covid_positive_test1":"","covid_positive_test3":"","covid_positive_test2":"","psych_diag":"no","retired":"no","med4_dose":"","covid_vax_1st_dose":"2021-03-05","profession":"researcher","last_menstrual_period":"","covid_vax_2nd_dose":"2021-03-26","race":"prefer_not_to_state","med5_name":"","med6_dose":"","ever_smoked":"no","med2_name":"","med3_dose":"","med5_dose":"","education_years":"20","med2_dose":"","psych_diag_which":"","med3_name":"","med6_name":""},"trial_type":"survey-html-form","time_elapsed":224883,"dateTime":"2021-11-11T15:56:42.700Z","isRelevant":true},{"ua":"Mozilla/5.0 (Macintosh; Intel Mac OS X 10.15; rv:94.0) Gecko/20100101 Firefox/94.0","dateTime":"2021-11-11T15:56:42.703Z","isRelevant":false},{"taskStarted":true,"dateTime":"2021-11-09T17:44:43.255Z","isRelevant":false},{"trial_index":0,"internal_node_id":"0.0-0.0-0.0-0.0","success":true,"trial_type":"fullscreen","time_elapsed":3228,"dateTime":"2021-11-09T17:44:46.482Z","isRelevant":false},{"trial_index":1,"internal_node_id":"0.0-0.0-1.0","rt":86862.89999997616,"response":{"covid_vax":"yes","ethnicity":"non_hispanic","med1_dose":"","estrogen_replacement_med":"on","weekly_alcoholic_drinks":"5","med1_name":"","med4_name":"","covid_positive_test1":"","covid_positive_test3":"","covid_positive_test2":"","psych_diag":"no","retired":"no","med4_dose":"","covid_vax_1st_dose":"2021-03-11","profession":"Student","last_menstrual_period":"November 2021","covid_vax_2nd_dose":"2021-04-08","race":"asian","med5_name":"","med6_dose":"","ever_smoked":"no","med2_name":"","med3_dose":"","med5_dose":"","education_years":"16","med2_dose":"","psych_diag_which":"","med3_name":"","med6_name":""},"trial_type":"survey-html-form","time_elapsed":90097,"dateTime":"2021-11-09T17:46:13.352Z","isRelevant":true},{"ua":"Mozilla/5.0 (Macintosh; Intel Mac OS X 10_15_7) AppleWebKit/537.36 (KHTML, like Gecko) Chrome/95.0.4638.54 Safari/537.36","dateTime":"2021-11-09T17:46:13.359Z","isRelevant":false},{"taskStarted":true,"dateTime":"2021-11-15T18:43:39.042Z","isRelevant":false},{"taskStarted":true,"dateTime":"2021-11-15T18:43:50.277Z","isRelevant":false},{"trial_index":0,"internal_node_id":"0.0-0.0-0.0-0.0","success":true,"trial_type":"fullscreen","time_elapsed":6957,"dateTime":"2021-11-15T18:43:57.235Z","isRelevant":false},{"taskStarted":true,"dateTime":"2021-11-16T22:17:58.748Z","isRelevant":false},{"trial_index":0,"internal_node_id":"0.0-0.0-0.0-0.0","success":true,"trial_type":"fullscreen","time_elapsed":1668520,"dateTime":"2021-11-16T22:45:47.265Z","isRelevant":false},{"trial_index":1,"internal_node_id":"0.0-0.0-1.0","rt":230444,"response":{"covid_vax":"yes","none_med":"on","ethnicity":"hispanic","med1_dose":"","weekly_alcoholic_drinks":"4","med1_name":"","med4_name":"","covid_positive_test1":"","covid_positive_test3":"","covid_positive_test2":"","psych_diag":"no","retired":"no","med4_dose":"","covid_vax_1st_dose":"2021-03-01","profession":"researcher","last_menstrual_period":"NA","covid_vax_2nd_dose":"2021-03-21","race":"caucasian","med5_name":"","med6_dose":"","ever_smoked":"no","med2_name":"","doctorNone":"on","med3_dose":"","med5_dose":"","education_years":"20","med2_dose":"","psych_diag_which":"","med3_name":"","med6_name":""},"trial_type":"survey-html-form","time_elapsed":1898978,"dateTime":"2021-11-16T22:49:37.722Z","isRelevant":true},{"ua":"Mozilla/5.0 (Macintosh; Intel Mac OS X 10_15_7) AppleWebKit/605.1.15 (KHTML, like Gecko) Version/15.0 Safari/605.1.15","dateTime":"2021-11-16T22:49:37.726Z","isRelevant":false},{"taskStarted":true,"dateTime":"2021-11-04T16:33:25.745Z","isRelevant":false},{"internal_node_id":"0.0-0.0-0.0-0.0","success":true,"time_elapsed":2474,"trial_index":0,"trial_type":"fullscreen","dateTime":"2021-11-04T16:33:28.219Z","isRelevant":false},{"internal_node_id":"0.0-0.0-1.0","response":{"covid_positive_test1":null,"covid_positive_test2":null,"covid_positive_test3":null,"covid_vax":"yes","covid_vax_1st_dose":"2021-04-05","covid_vax_2nd_dose":null,"education_years":"18","estrogen_replacement_med":"on","ethnicity":"non_hispanic","ever_smoked":"no","last_menstrual_period":null,"med1_dose":null,"med1_name":null,"med2_dose":null,"med2_name":null,"med3_dose":null,"med3_name":null,"med4_dose":null,"med4_name":null,"med5_dose":null,"med5_name":null,"med6_dose":null,"med6_name":null,"profession":"project assistant","psych_diag":"no","psych_diag_which":null,"race":"asian","retired":"no","weekly_alcoholic_drinks":"0"},"rt":91746.09999990463,"time_elapsed":94246,"trial_index":1,"trial_type":"survey-html-form","dateTime":"2021-11-04T16:34:59.990Z","isRelevant":true},{"ua":"Mozilla/5.0 (Macintosh; Intel Mac OS X 10_15_7) AppleWebKit/537.36 (KHTML, like Gecko) Chrome/95.0.4638.54 Safari/537.36","dateTime":"2021-11-04T16:34:59.997Z","isRelevant":false},{"taskStarted":true,"dateTime":"2021-11-11T18:48:31.889Z","isRelevant":false},{"trial_index":0,"internal_node_id":"0.0-0.0-0.0-0.0","success":true,"trial_type":"fullscreen","time_elapsed":1932,"dateTime":"2021-11-11T18:48:33.815Z","isRelevant":false},{"trial_index":1,"internal_node_id":"0.0-0.0-1.0","rt":58268.59999999404,"response":{"covid_vax":"yes","ethnicity":"non_hispanic","med1_dose":"","estrogen_replacement_med":"on","weekly_alcoholic_drinks":"0","med1_name":"","med4_name":"","covid_positive_test1":"","covid_positive_test3":"","covid_positive_test2":"","psych_diag":"no","retired":"no","med4_dose":"","covid_vax_1st_dose":"2021-04-05","profession":"project assistant","last_menstrual_period":"","covid_vax_2nd_dose":"","race":"asian","med5_name":"","med6_dose":"","ever_smoked":"no","med2_name":"","med3_dose":"","med5_dose":"","education_years":"16","med2_dose":"","psych_diag_which":"","med3_name":"","med6_name":""},"trial_type":"survey-html-form","time_elapsed":60225,"dateTime":"2021-11-11T18:49:32.108Z","isRelevant":true},{"ua":"Mozilla/5.0 (Windows NT 10.0; Win64; x64) AppleWebKit/537.36 (KHTML, like Gecko) Chrome/95.0.4638.69 Safari/537.36 Edg/95.0.1020.44","dateTime":"2021-11-11T18:49:32.118Z","isRelevant":false},{"taskStarted":true,"dateTime":"2021-11-14T18:09:55.598Z","isRelevant":false},{"trial_index":0,"internal_node_id":"0.0-0.0-0.0-0.0","success":true,"trial_type":"fullscreen","time_elapsed":1538,"dateTime":"2021-11-14T18:09:57.135Z","isRelevant":false},{"taskStarted":true,"dateTime":"2021-11-14T18:19:59.353Z","isRelevant":false},{"trial_index":0,"internal_node_id":"0.0-0.0-0.0-0.0","success":true,"trial_type":"fullscreen","time_elapsed":6631,"dateTime":"2021-11-14T18:20:05.982Z","isRelevant":false},{"taskStarted":true,"dateTime":"2021-11-15T04:21:45.112Z","isRelevant":false},{"trial_index":0,"internal_node_id":"0.0-0.0-0.0-0.0","success":true,"trial_type":"fullscreen","time_elapsed":4466,"dateTime":"2021-11-15T04:21:49.573Z","isRelevant":false},{"taskStarted":true,"dateTime":"2021-11-15T04:22:06.161Z","isRelevant":false},{"trial_index":0,"internal_node_id":"0.0-0.0-0.0-0.0","success":true,"trial_type":"fullscreen","time_elapsed":3747,"dateTime":"2021-11-15T04:22:09.907Z","isRelevant":false},{"taskStarted":true,"dateTime":"2021-11-15T04:52:00.199Z","isRelevant":false},{"trial_index":0,"internal_node_id":"0.0-0.0-0.0-0.0","success":true,"trial_type":"fullscreen","time_elapsed":4005,"dateTime":"2021-11-15T04:52:04.205Z","isRelevant":false},{"taskStarted":true,"dateTime":"2021-11-15T05:04:22.474Z","isRelevant":false},{"trial_index":0,"internal_node_id":"0.0-0.0-0.0-0.0","success":true,"trial_type":"fullscreen","time_elapsed":1148,"dateTime":"2021-11-15T05:04:23.621Z","isRelevant":false},{"taskStarted":true,"dateTime":"2021-11-15T05:07:00.453Z","isRelevant":false},{"trial_index":0,"internal_node_id":"0.0-0.0-0.0-0.0","success":true,"trial_type":"fullscreen","time_elapsed":1863,"dateTime":"2021-11-15T05:07:02.316Z","isRelevant":false},{"taskStarted":true,"dateTime":"2021-11-15T05:12:59.055Z","isRelevant":false},{"trial_index":0,"internal_node_id":"0.0-0.0-0.0-0.0","success":true,"trial_type":"fullscreen","time_elapsed":2431,"dateTime":"2021-11-15T05:13:01.486Z","isRelevant":false},{"taskStarted":true,"dateTime":"2021-11-15T05:13:39.148Z","isRelevant":false},{"trial_index":0,"internal_node_id":"0.0-0.0-0.0-0.0","success":true,"trial_type":"fullscreen","time_elapsed":3475,"dateTime":"2021-11-15T05:13:42.623Z","isRelevant":false},{"taskStarted":true,"dateTime":"2021-11-15T05:19:57.784Z","isRelevant":false},{"trial_index":0,"internal_node_id":"0.0-0.0-0.0-0.0","success":true,"trial_type":"fullscreen","time_elapsed":2811,"dateTime":"2021-11-15T05:20:00.596Z","isRelevant":false},{"taskStarted":true,"dateTime":"2021-11-15T05:24:15.081Z","isRelevant":false},{"trial_index":0,"internal_node_id":"0.0-0.0-0.0-0.0","success":true,"trial_type":"fullscreen","time_elapsed":1376,"dateTime":"2021-11-15T05:24:16.458Z","isRelevant":false},{"taskStarted":true,"dateTime":"2021-11-15T05:44:10.164Z","isRelevant":false},{"trial_index":0,"internal_node_id":"0.0-0.0-0.0-0.0","success":true,"trial_type":"fullscreen","time_elapsed":2302,"dateTime":"2021-11-15T05:44:12.466Z","isRelevant":false},{"taskStarted":true,"dateTime":"2021-11-15T05:44:36.776Z","isRelevant":false},{"trial_index":0,"internal_node_id":"0.0-0.0-0.0-0.0","success":true,"trial_type":"fullscreen","time_elapsed":1753,"dateTime":"2021-11-15T05:44:38.529Z","isRelevant":false},{"taskStarted":true,"dateTime":"2021-11-15T05:46:09.910Z","isRelevant":false},{"trial_index":0,"internal_node_id":"0.0-0.0-0.0-0.0","success":true,"trial_type":"fullscreen","time_elapsed":3716,"dateTime":"2021-11-15T05:46:13.627Z","isRelevant":false},{"taskStarted":true,"dateTime":"2021-11-15T05:48:30.025Z","isRelevant":false},{"taskStarted":true,"dateTime":"2021-11-15T05:48:32.232Z","isRelevant":false},{"taskStarted":true,"dateTime":"2021-11-15T05:48:35.672Z","isRelevant":false},{"taskStarted":true,"dateTime":"2021-11-15T05:49:54.636Z","isRelevant":false},{"taskStarted":true,"dateTime":"2021-11-15T05:52:41.595Z","isRelevant":false},{"trial_index":0,"internal_node_id":"0.0-0.0-0.0-0.0","success":true,"trial_type":"fullscreen","time_elapsed":1535,"dateTime":"2021-11-15T05:52:43.130Z","isRelevant":false},{"taskStarted":true,"dateTime":"2021-11-15T05:53:16.569Z","isRelevant":false},{"trial_index":0,"internal_node_id":"0.0-0.0-0.0-0.0","success":true,"trial_type":"fullscreen","time_elapsed":4788,"dateTime":"2021-11-15T05:53:21.357Z","isRelevant":false},{"taskStarted":true,"dateTime":"2021-11-15T05:54:23.161Z","isRelevant":false},{"trial_index":0,"internal_node_id":"0.0-0.0-0.0-0.0","success":true,"trial_type":"fullscreen","time_elapsed":2151,"dateTime":"2021-11-15T05:54:25.312Z","isRelevant":false},{"taskStarted":true,"dateTime":"2021-11-15T05:55:58.714Z","isRelevant":false},{"trial_index":0,"internal_node_id":"0.0-0.0-0.0-0.0","success":true,"trial_type":"fullscreen","time_elapsed":3239,"dateTime":"2021-11-15T05:56:01.954Z","isRelevant":false},{"trial_index":1,"internal_node_id":"0.0-0.0-1.0","rt":31342,"response":{"covid_vax":"no","none_med":"on","ethnicity":"hispanic","med1_dose":"","weekly_alcoholic_drinks":"3","med1_name":"","med4_name":"","covid_positive_test1":"","covid_positive_test3":"","covid_positive_test2":"","psych_diag":"no","retired":"no","med4_dose":"","covid_vax_1st_dose":"","profession":"foo","last_menstrual_period":"1-2y","covid_vax_2nd_dose":"","race":"caucasian","med5_name":"","med6_dose":"","ever_smoked":"no","med2_name":"","doctorNone":"on","med3_dose":"","med5_dose":"","education_years":"23","med2_dose":"","psych_diag_which":"","med3_name":"","med6_name":""},"trial_type":"survey-html-form","time_elapsed":34649,"dateTime":"2021-11-15T05:56:33.363Z","isRelevant":true},{"ua":"Mozilla/5.0 (Macintosh; Intel Mac OS X 10.13; rv:94.0) Gecko/20100101 Firefox/94.0","dateTime":"2021-11-15T05:56:33.379Z","isRelevant":false},{"taskStarted":true,"dateTime":"2021-11-15T18:14:52.688Z","isRelevant":false},{"trial_index":0,"internal_node_id":"0.0-0.0-0.0-0.0","success":true,"trial_type":"fullscreen","time_elapsed":2121,"dateTime":"2021-11-15T18:14:54.810Z","isRelevant":false},{"taskStarted":true,"dateTime":"2021-11-15T18:17:02.121Z","isRelevant":false},{"taskStarted":true,"dateTime":"2021-11-15T18:26:07.464Z","isRelevant":false},{"taskStarted":true,"dateTime":"2021-11-15T18:57:04.528Z","isRelevant":false},{"trial_index":0,"internal_node_id":"0.0-0.0-0.0-0.0","success":true,"trial_type":"fullscreen","time_elapsed":1237,"dateTime":"2021-11-15T18:57:05.765Z","isRelevant":false},{"trial_index":1,"internal_node_id":"0.0-0.0-1.0","rt":32705,"response":{"covid_vax":"no","none_med":"on","ethnicity":"hispanic","med1_dose":"","weekly_alcoholic_drinks":"3","med1_name":"","med4_name":"","covid_positive_test1":"","covid_positive_test3":"","covid_positive_test2":"","psych_diag":"no","retired":"no","med4_dose":"","covid_vax_1st_dose":"","profession":"foo","last_menstrual_period":"NA","covid_vax_2nd_dose":"","race":"caucasian","med5_name":"","med6_dose":"","ever_smoked":"no","med2_name":"","doctorNone":"on","med3_dose":"","med5_dose":"","education_years":"2","med2_dose":"","psych_diag_which":"","med3_name":"","med6_name":""},"trial_type":"survey-html-form","time_elapsed":33981,"dateTime":"2021-11-15T18:57:38.510Z","isRelevant":true},{"ua":"Mozilla/5.0 (Macintosh; Intel Mac OS X 10.13; rv:94.0) Gecko/20100101 Firefox/94.0","dateTime":"2021-11-15T18:57:38.525Z","isRelevant":false},{"taskStarted":true,"dateTime":"2021-11-15T19:01:27.687Z","isRelevant":false},{"taskStarted":true,"dateTime":"2021-11-10T20:45:17.055Z","isRelevant":false},{"trial_index":0,"internal_node_id":"0.0-0.0-0.0-0.0","success":true,"trial_type":"fullscreen","time_elapsed":1405,"dateTime":"2021-11-10T20:45:18.457Z","isRelevant":false},{"trial_index":1,"internal_node_id":"0.0-0.0-1.0","rt":216416.3999999985,"response":{"covid_vax":"yes","ethnicity":"non_hispanic","med1_dose":"","estrogen_replacement_med":"on","weekly_alcoholic_drinks":"1","med1_name":"","med4_name":"","covid_positive_test1":"","covid_positive_test3":"","covid_positive_test2":"","psych_diag":"no","race_other":"middle-eastern","retired":"no","med4_dose":"","covid_vax_1st_dose":"2021-03-05","profession":"grad student","last_menstrual_period":"October 2021","covid_vax_2nd_dose":"2021-03-26","race":"other","med5_name":"","med6_dose":"","ever_smoked":"yes","med2_name":"","med3_dose":"","med5_dose":"","education_years":"21","med2_dose":"","psych_diag_which":"","med3_name":"","med6_name":""},"trial_type":"survey-html-form","time_elapsed":217829,"dateTime":"2021-11-10T20:48:54.883Z","isRelevant":true},{"ua":"Mozilla/5.0 (Windows NT 10.0; Win64; x64) AppleWebKit/537.36 (KHTML, like Gecko) Chrome/95.0.4638.69 Safari/537.36","dateTime":"2021-11-10T20:48:54.890Z","isRelevant":false},{"taskStarted":true,"dateTime":"2021-11-16T22:32:33.348Z","isRelevant":false},{"trial_index":0,"internal_node_id":"0.0-0.0-0.0-0.0","success":true,"trial_type":"fullscreen","time_elapsed":2064,"dateTime":"2021-11-16T22:32:35.412Z","isRelevant":false},{"taskStarted":true,"dateTime":"2021-11-11T17:32:51.726Z","isRelevant":false},{"trial_index":0,"internal_node_id":"0.0-0.0-0.0-0.0","success":true,"trial_type":"fullscreen","time_elapsed":2869,"dateTime":"2021-11-11T17:32:54.589Z","isRelevant":false},{"trial_index":1,"internal_node_id":"0.0-0.0-1.0","rt":161070,"response":{"covid_vax":"yes","ethnicity":"non_hispanic","med1_dose":"","estrogen_replacement_med":"on","weekly_alcoholic_drinks":"0","med1_name":"","med4_name":"","covid_positive_test1":"","covid_positive_test3":"","covid_positive_test2":"","psych_diag":"no","retired":"no","med4_dose":"","covid_vax_1st_dose":"2021-04-01","profession":"professor","last_menstrual_period":"is this really open ended? That seems like a bad idea.","covid_vax_2nd_dose":"2021-04-20","race":"caucasian","osteoporosis_tendonitis":"on","med5_name":"","med6_dose":"","ever_smoked":"no","med2_name":"","med3_dose":"","med5_dose":"","education_years":"21","med2_dose":"","psych_diag_which":"","irregular_heartbeats":"on","med3_name":"","med6_name":""},"trial_type":"survey-html-form","time_elapsed":163991,"dateTime":"2021-11-11T17:35:35.710Z","isRelevant":true},{"ua":"Mozilla/5.0 (Macintosh; Intel Mac OS X 10.15; rv:94.0) Gecko/20100101 Firefox/94.0","dateTime":"2021-11-11T17:35:35.717Z","isRelevant":false},{"taskStarted":true,"dateTime":"2021-11-06T19:01:11.026Z","isRelevant":false},{"trial_index":0,"internal_node_id":"0.0-0.0-0.0-0.0","success":true,"trial_type":"fullscreen","time_elapsed":1871,"dateTime":"2021-11-06T19:01:12.895Z","isRelevant":false},{"trial_index":1,"internal_node_id":"0.0-0.0-1.0","rt":100622.5,"response":{"covid_vax":"yes","ethnicity":"non_hispanic","med1_dose":"","weekly_alcoholic_drinks":"0","med1_name":"","med4_name":"","covid_positive_test1":"","covid_positive_test3":"","covid_positive_test2":"","psych_diag":"no","retired":"no","med4_dose":"","covid_vax_1st_dose":"2021-03-25","profession":"Research Assistant","last_menstrual_period":"","covid_vax_2nd_dose":"2021-04-15","race":"caucasian","med5_name":"","med6_dose":"","ever_smoked":"no","med2_name":"","med3_dose":"","med5_dose":"","education_years":"14","med2_dose":"","psych_diag_which":"","med3_name":"","med6_name":""},"trial_type":"survey-html-form","time_elapsed":102499,"dateTime":"2021-11-06T19:02:53.524Z","isRelevant":true},{"ua":"Mozilla/5.0 (Windows NT 10.0; Win64; x64) AppleWebKit/537.36 (KHTML, like Gecko) Chrome/95.0.4638.69 Safari/537.36","dateTime":"2021-11-06T19:02:53.529Z","isRelevant":false}]
