[{"taskStarted":true,"userId":"524d2272-d17f-42aa-b335-772a7ac10972","dateTime":"2021-11-10T16:38:10.666Z","isRelevant":false},{"internal_node_id":"0.0-0.0-1.0","success":true,"trial_type":"preload","failed_images":[],"time_elapsed":460,"trial_index":0,"failed_audio":[],"failed_video":[],"timeout":false,"userId":"524d2272-d17f-42aa-b335-772a7ac10972","dateTime":"2021-11-10T16:38:11.126Z","isRelevant":false},{"internal_node_id":"0.0-0.0-2.0","rt":15361,"response":" ","trial_type":"html-keyboard-response","stimulus":"<h2>Face-Name Recognition Task</h2> <p>You are about to start a new task. In this task, you will see pictures of people along with their names and be asked to remember them for a later memory test. You will see each person twice. You will need to remember them for memory tests today and on subsequent days.<br/> Before we begin the actual task, let’s try a few practice trials.</p> <em>Press the space bar to continue</em>","time_elapsed":15822,"trial_index":1,"userId":"524d2272-d17f-42aa-b335-772a7ac10972","dateTime":"2021-11-10T16:38:26.488Z","isRelevant":false},{"internal_node_id":"0.0-0.0-3.0","rt":4055,"response":" ","trial_type":"html-keyboard-response","stimulus":"<h2>Practice</h2> <p>You will see 4 pictures of people with their names. Please try to remember each person.</p> <em>Press the space bar to continue</em> ","time_elapsed":19879,"trial_index":2,"userId":"524d2272-d17f-42aa-b335-772a7ac10972","dateTime":"2021-11-10T16:38:30.545Z","isRelevant":false},{"internal_node_id":"0.0-0.0-4.0-0.0","rt":null,"isLearning":true,"isPractice":true,"response":null,"trial_type":"html-keyboard-response","stimulus":"<p>Read and memorize</p><img src=\"https://d3vowlh1lzbs4j.cloudfront.net/face/WBmale31neutral.jpg\"/> <br/> Tom","cat":"age 30-49/Male","time_elapsed":24881,"name":"Tom","trial_index":3,"picId":"WBmale31neutral.jpg","userId":"524d2272-d17f-42aa-b335-772a7ac10972","dateTime":"2021-11-10T16:38:35.547Z","isRelevant":false},{"internal_node_id":"0.0-0.0-4.0-0.1","rt":null,"isLearning":true,"isPractice":true,"response":null,"trial_type":"html-keyboard-response","stimulus":"<p>Read and memorize</p><img src=\"https://d3vowlh1lzbs4j.cloudfront.net/face/TSFBmale77neutral.jpg\"/> <br/> John","cat":"age 70-94/Male","time_elapsed":29884,"name":"John","trial_index":4,"picId":"TSFBmale77neutral.jpg","userId":"524d2272-d17f-42aa-b335-772a7ac10972","dateTime":"2021-11-10T16:38:40.550Z","isRelevant":false},{"internal_node_id":"0.0-0.0-4.0-0.2","rt":null,"isLearning":true,"isPractice":true,"response":null,"trial_type":"html-keyboard-response","stimulus":"<p>Read and memorize</p><img src=\"https://d3vowlh1lzbs4j.cloudfront.net/face/TSFWfemale62neutral.jpg\"/> <br/> Mary","cat":"age 50-69/Female","time_elapsed":34887,"name":"Mary","trial_index":5,"picId":"TSFWfemale62neutral.jpg","userId":"524d2272-d17f-42aa-b335-772a7ac10972","dateTime":"2021-11-10T16:38:45.554Z","isRelevant":false},{"internal_node_id":"0.0-0.0-4.0-0.3","rt":null,"isLearning":true,"isPractice":true,"response":null,"trial_type":"html-keyboard-response","stimulus":"<p>Read and memorize</p><img src=\"https://d3vowlh1lzbs4j.cloudfront.net/face/EMWfemale24-2neutral.jpg\"/> <br/> Rachel","cat":"age18-29/Female","time_elapsed":39892,"name":"Rachel","trial_index":6,"picId":"EMWfemale24-2neutral.jpg","userId":"524d2272-d17f-42aa-b335-772a7ac10972","dateTime":"2021-11-10T16:38:50.558Z","isRelevant":false},{"internal_node_id":"0.0-0.0-5.0-0.0","rt":null,"isLearning":true,"isPractice":true,"response":null,"trial_type":"html-keyboard-response","stimulus":"<p>Read and memorize</p><img src=\"https://d3vowlh1lzbs4j.cloudfront.net/face/WBmale31neutral.jpg\"/> <br/> Tom","cat":"age 30-49/Male","time_elapsed":44894,"name":"Tom","trial_index":7,"picId":"WBmale31neutral.jpg","userId":"524d2272-d17f-42aa-b335-772a7ac10972","dateTime":"2021-11-10T16:38:55.560Z","isRelevant":false},{"internal_node_id":"0.0-0.0-5.0-0.1","rt":null,"isLearning":true,"isPractice":true,"response":null,"trial_type":"html-keyboard-response","stimulus":"<p>Read and memorize</p><img src=\"https://d3vowlh1lzbs4j.cloudfront.net/face/TSFBmale77neutral.jpg\"/> <br/> John","cat":"age 70-94/Male","time_elapsed":49896,"name":"John","trial_index":8,"picId":"TSFBmale77neutral.jpg","userId":"524d2272-d17f-42aa-b335-772a7ac10972","dateTime":"2021-11-10T16:39:00.562Z","isRelevant":false},{"internal_node_id":"0.0-0.0-5.0-0.2","rt":null,"isLearning":true,"isPractice":true,"response":null,"trial_type":"html-keyboard-response","stimulus":"<p>Read and memorize</p><img src=\"https://d3vowlh1lzbs4j.cloudfront.net/face/TSFWfemale62neutral.jpg\"/> <br/> Mary","cat":"age 50-69/Female","time_elapsed":54897,"name":"Mary","trial_index":9,"picId":"TSFWfemale62neutral.jpg","userId":"524d2272-d17f-42aa-b335-772a7ac10972","dateTime":"2021-11-10T16:39:05.563Z","isRelevant":false},{"internal_node_id":"0.0-0.0-5.0-0.3","rt":null,"isLearning":true,"isPractice":true,"response":null,"trial_type":"html-keyboard-response","stimulus":"<p>Read and memorize</p><img src=\"https://d3vowlh1lzbs4j.cloudfront.net/face/EMWfemale24-2neutral.jpg\"/> <br/> Rachel","cat":"age18-29/Female","time_elapsed":59900,"name":"Rachel","trial_index":10,"picId":"EMWfemale24-2neutral.jpg","userId":"524d2272-d17f-42aa-b335-772a7ac10972","dateTime":"2021-11-10T16:39:10.566Z","isRelevant":false},{"internal_node_id":"0.0-0.0-6.0","rt":3458,"response":" ","trial_type":"html-keyboard-response","stimulus":"<h2>Memory test</h2> <p>Now you will be tested on your memory. Please select option 1 or 2 to indicate the name of the person.</p> <em>Press the space bar to continue</em>","time_elapsed":63360,"trial_index":11,"userId":"524d2272-d17f-42aa-b335-772a7ac10972","dateTime":"2021-11-10T16:39:14.026Z","isRelevant":false},{"internal_node_id":"0.0-0.0-7.0-0.0","rt":3383,"correct":true,"stimulus":"<p>What is the person's name?</p><img src=\"https://d3vowlh1lzbs4j.cloudfront.net/face/WBmale31neutral.jpg\"/> <br/> <span style=\"margin-right: 150px;\">1. Tom</span> <span style=\"margin-left: 150px;\">2. John</span>","time_elapsed":66743,"isRecall":true,"lure":"John","names":["Tom","John"],"isPractice":true,"response":"1","trial_type":"html-keyboard-response","cat":"age 30-49/Male","name":"Tom","trial_index":12,"picId":"WBmale31neutral.jpg","userId":"524d2272-d17f-42aa-b335-772a7ac10972","dateTime":"2021-11-10T16:39:17.409Z","isRelevant":true},{"internal_node_id":"0.0-0.0-7.0-0.1","rt":1222,"correct":true,"stimulus":"<p>What is the person's name?</p><img src=\"https://d3vowlh1lzbs4j.cloudfront.net/face/TSFBmale77neutral.jpg\"/> <br/> <span style=\"margin-right: 150px;\">1. Tom</span> <span style=\"margin-left: 150px;\">2. John</span>","time_elapsed":67967,"isRecall":true,"lure":"Tom","names":["Tom","John"],"isPractice":true,"response":"2","trial_type":"html-keyboard-response","cat":"age 70-94/Male","name":"John","trial_index":13,"picId":"TSFBmale77neutral.jpg","userId":"524d2272-d17f-42aa-b335-772a7ac10972","dateTime":"2021-11-10T16:39:18.634Z","isRelevant":true},{"internal_node_id":"0.0-0.0-7.0-0.2","rt":1176,"correct":true,"stimulus":"<p>What is the person's name?</p><img src=\"https://d3vowlh1lzbs4j.cloudfront.net/face/TSFWfemale62neutral.jpg\"/> <br/> <span style=\"margin-right: 150px;\">1. Mary</span> <span style=\"margin-left: 150px;\">2. Rachel</span>","time_elapsed":69144,"isRecall":true,"lure":"Rachel","names":["Mary","Rachel"],"isPractice":true,"response":"1","trial_type":"html-keyboard-response","cat":"age 50-69/Female","name":"Mary","trial_index":14,"picId":"TSFWfemale62neutral.jpg","userId":"524d2272-d17f-42aa-b335-772a7ac10972","dateTime":"2021-11-10T16:39:19.810Z","isRelevant":true},{"internal_node_id":"0.0-0.0-7.0-0.3","rt":1094,"correct":true,"stimulus":"<p>What is the person's name?</p><img src=\"https://d3vowlh1lzbs4j.cloudfront.net/face/EMWfemale24-2neutral.jpg\"/> <br/> <span style=\"margin-right: 150px;\">1. Rachel</span> <span style=\"margin-left: 150px;\">2. Mary</span>","time_elapsed":70240,"isRecall":true,"lure":"Mary","names":["Rachel","Mary"],"isPractice":true,"response":"1","trial_type":"html-keyboard-response","cat":"age18-29/Female","name":"Rachel","trial_index":15,"picId":"EMWfemale24-2neutral.jpg","userId":"524d2272-d17f-42aa-b335-772a7ac10972","dateTime":"2021-11-10T16:39:20.906Z","isRelevant":true},{"internal_node_id":"0.0-0.0-8.0","rt":4223,"response":" ","trial_type":"html-keyboard-response","stimulus":"<p>Now we will begin the actual task. You will see pictures of people along with their names. Please try to remember them for memory tests that will happen later today and on subsequent days.</p> <em>Press the space bar to continue</em>","time_elapsed":74463,"trial_index":16,"userId":"524d2272-d17f-42aa-b335-772a7ac10972","dateTime":"2021-11-10T16:39:25.129Z","isRelevant":false},{"internal_node_id":"0.0-0.0-9.0-0.0","rt":null,"isLearning":true,"response":null,"trial_type":"html-keyboard-response","stimulus":"<p>Read and memorize</p><img src=\"https://d3vowlh1lzbs4j.cloudfront.net/face/TMAfemale20neutral.jpg\"/> <br/> Jessica","cat":"age18-29/Female","time_elapsed":79469,"name":"Jessica","trial_index":17,"picId":"TMAfemale20neutral.jpg","userId":"524d2272-d17f-42aa-b335-772a7ac10972","dateTime":"2021-11-10T16:39:30.136Z","isRelevant":false},{"internal_node_id":"0.0-0.0-9.0-0.1","rt":null,"isLearning":true,"response":null,"trial_type":"html-keyboard-response","stimulus":"<p>Read and memorize</p><img src=\"https://d3vowlh1lzbs4j.cloudfront.net/face/EMWmale19-2neutral.jpg\"/> <br/> Thomas","cat":"age18-29/Male","time_elapsed":84475,"name":"Thomas","trial_index":18,"picId":"EMWmale19-2neutral.jpg","userId":"524d2272-d17f-42aa-b335-772a7ac10972","dateTime":"2021-11-10T16:39:35.141Z","isRelevant":false},{"internal_node_id":"0.0-0.0-9.0-0.2","rt":null,"isLearning":true,"response":null,"trial_type":"html-keyboard-response","stimulus":"<p>Read and memorize</p><img src=\"https://d3vowlh1lzbs4j.cloudfront.net/face/EMBfemale33neutral.jpg\"/> <br/> Ashley","cat":"age 30-49/Female","time_elapsed":89477,"name":"Ashley","trial_index":19,"picId":"EMBfemale33neutral.jpg","userId":"524d2272-d17f-42aa-b335-772a7ac10972","dateTime":"2021-11-10T16:39:40.144Z","isRelevant":false},{"internal_node_id":"0.0-0.0-9.0-0.3","rt":null,"isLearning":true,"response":null,"trial_type":"html-keyboard-response","stimulus":"<p>Read and memorize</p><img src=\"https://d3vowlh1lzbs4j.cloudfront.net/face/EMWmale33neutral.jpg\"/> <br/> William","cat":"age 30-49/Male","time_elapsed":94479,"name":"William","trial_index":20,"picId":"EMWmale33neutral.jpg","userId":"524d2272-d17f-42aa-b335-772a7ac10972","dateTime":"2021-11-10T16:39:45.145Z","isRelevant":false},{"internal_node_id":"0.0-0.0-9.0-0.4","rt":null,"isLearning":true,"response":null,"trial_type":"html-keyboard-response","stimulus":"<p>Read and memorize</p><img src=\"https://d3vowlh1lzbs4j.cloudfront.net/face/TMWmale79neutral.jpg\"/> <br/> Donald","cat":"age 70-94/Male","time_elapsed":99483,"name":"Donald","trial_index":21,"picId":"TMWmale79neutral.jpg","userId":"524d2272-d17f-42aa-b335-772a7ac10972","dateTime":"2021-11-10T16:39:50.151Z","isRelevant":false},{"internal_node_id":"0.0-0.0-9.0-0.5","rt":null,"isLearning":true,"response":null,"trial_type":"html-keyboard-response","stimulus":"<p>Read and memorize</p><img src=\"https://d3vowlh1lzbs4j.cloudfront.net/face/JWfemale92neutral.jpg\"/> <br/> Dorothy","cat":"age 70-94/Female","time_elapsed":104488,"name":"Dorothy","trial_index":22,"picId":"JWfemale92neutral.jpg","userId":"524d2272-d17f-42aa-b335-772a7ac10972","dateTime":"2021-11-10T16:39:55.154Z","isRelevant":false},{"internal_node_id":"0.0-0.0-9.0-0.6","rt":null,"isLearning":true,"response":null,"trial_type":"html-keyboard-response","stimulus":"<p>Read and memorize</p><img src=\"https://d3vowlh1lzbs4j.cloudfront.net/face/TMWfemale61neutral.jpg\"/> <br/> Carol","cat":"age 50-69/Female","time_elapsed":109490,"name":"Carol","trial_index":23,"picId":"TMWfemale61neutral.jpg","userId":"524d2272-d17f-42aa-b335-772a7ac10972","dateTime":"2021-11-10T16:40:00.157Z","isRelevant":false},{"internal_node_id":"0.0-0.0-9.0-0.7","rt":null,"isLearning":true,"response":null,"trial_type":"html-keyboard-response","stimulus":"<p>Read and memorize</p><img src=\"https://d3vowlh1lzbs4j.cloudfront.net/face/Wmale_55-3.jpg\"/> <br/> George","cat":"age 50-69/Male","time_elapsed":114496,"name":"George","trial_index":24,"picId":"Wmale_55-3.jpg","userId":"524d2272-d17f-42aa-b335-772a7ac10972","dateTime":"2021-11-10T16:40:05.162Z","isRelevant":false},{"internal_node_id":"0.0-0.0-10.0-0.0","rt":null,"isLearning":true,"response":null,"trial_type":"html-keyboard-response","stimulus":"<p>Read and memorize</p><img src=\"https://d3vowlh1lzbs4j.cloudfront.net/face/TMAfemale20neutral.jpg\"/> <br/> Jessica","cat":"age18-29/Female","time_elapsed":119498,"name":"Jessica","trial_index":25,"picId":"TMAfemale20neutral.jpg","userId":"524d2272-d17f-42aa-b335-772a7ac10972","dateTime":"2021-11-10T16:40:10.164Z","isRelevant":false},{"internal_node_id":"0.0-0.0-10.0-0.1","rt":null,"isLearning":true,"response":null,"trial_type":"html-keyboard-response","stimulus":"<p>Read and memorize</p><img src=\"https://d3vowlh1lzbs4j.cloudfront.net/face/EMWmale19-2neutral.jpg\"/> <br/> Thomas","cat":"age18-29/Male","time_elapsed":124504,"name":"Thomas","trial_index":26,"picId":"EMWmale19-2neutral.jpg","userId":"524d2272-d17f-42aa-b335-772a7ac10972","dateTime":"2021-11-10T16:40:15.170Z","isRelevant":false},{"internal_node_id":"0.0-0.0-10.0-0.2","rt":null,"isLearning":true,"response":null,"trial_type":"html-keyboard-response","stimulus":"<p>Read and memorize</p><img src=\"https://d3vowlh1lzbs4j.cloudfront.net/face/EMBfemale33neutral.jpg\"/> <br/> Ashley","cat":"age 30-49/Female","time_elapsed":129506,"name":"Ashley","trial_index":27,"picId":"EMBfemale33neutral.jpg","userId":"524d2272-d17f-42aa-b335-772a7ac10972","dateTime":"2021-11-10T16:40:20.172Z","isRelevant":false},{"internal_node_id":"0.0-0.0-10.0-0.3","rt":null,"isLearning":true,"response":null,"trial_type":"html-keyboard-response","stimulus":"<p>Read and memorize</p><img src=\"https://d3vowlh1lzbs4j.cloudfront.net/face/EMWmale33neutral.jpg\"/> <br/> William","cat":"age 30-49/Male","time_elapsed":134508,"name":"William","trial_index":28,"picId":"EMWmale33neutral.jpg","userId":"524d2272-d17f-42aa-b335-772a7ac10972","dateTime":"2021-11-10T16:40:25.174Z","isRelevant":false},{"internal_node_id":"0.0-0.0-10.0-0.4","rt":null,"isLearning":true,"response":null,"trial_type":"html-keyboard-response","stimulus":"<p>Read and memorize</p><img src=\"https://d3vowlh1lzbs4j.cloudfront.net/face/TMWmale79neutral.jpg\"/> <br/> Donald","cat":"age 70-94/Male","time_elapsed":139511,"name":"Donald","trial_index":29,"picId":"TMWmale79neutral.jpg","userId":"524d2272-d17f-42aa-b335-772a7ac10972","dateTime":"2021-11-10T16:40:30.177Z","isRelevant":false},{"internal_node_id":"0.0-0.0-10.0-0.5","rt":null,"isLearning":true,"response":null,"trial_type":"html-keyboard-response","stimulus":"<p>Read and memorize</p><img src=\"https://d3vowlh1lzbs4j.cloudfront.net/face/JWfemale92neutral.jpg\"/> <br/> Dorothy","cat":"age 70-94/Female","time_elapsed":144515,"name":"Dorothy","trial_index":30,"picId":"JWfemale92neutral.jpg","userId":"524d2272-d17f-42aa-b335-772a7ac10972","dateTime":"2021-11-10T16:40:35.181Z","isRelevant":false},{"internal_node_id":"0.0-0.0-10.0-0.6","rt":null,"isLearning":true,"response":null,"trial_type":"html-keyboard-response","stimulus":"<p>Read and memorize</p><img src=\"https://d3vowlh1lzbs4j.cloudfront.net/face/TMWfemale61neutral.jpg\"/> <br/> Carol","cat":"age 50-69/Female","time_elapsed":149517,"name":"Carol","trial_index":31,"picId":"TMWfemale61neutral.jpg","userId":"524d2272-d17f-42aa-b335-772a7ac10972","dateTime":"2021-11-10T16:40:40.184Z","isRelevant":false},{"internal_node_id":"0.0-0.0-10.0-0.7","rt":null,"isLearning":true,"response":null,"trial_type":"html-keyboard-response","stimulus":"<p>Read and memorize</p><img src=\"https://d3vowlh1lzbs4j.cloudfront.net/face/Wmale_55-3.jpg\"/> <br/> George","cat":"age 50-69/Male","time_elapsed":154519,"name":"George","trial_index":32,"picId":"Wmale_55-3.jpg","userId":"524d2272-d17f-42aa-b335-772a7ac10972","dateTime":"2021-11-10T16:40:45.185Z","isRelevant":false},{"internal_node_id":"0.0-0.0-11.0","rt":2546,"response":" ","trial_type":"html-keyboard-response","stimulus":"<h2>Memory test</h2> <p>Now you will be tested on your memory. Please select option 1 or 2 to indicate the name of the person.</p> <em>Press the space bar to continue</em>","time_elapsed":157067,"trial_index":33,"userId":"524d2272-d17f-42aa-b335-772a7ac10972","dateTime":"2021-11-10T16:40:47.733Z","isRelevant":false},{"internal_node_id":"0.0-0.0-12.0-0.0","rt":3302,"isLearning":true,"correct":true,"stimulus":"<p>What is the person's name?</p><img src=\"https://d3vowlh1lzbs4j.cloudfront.net/face/EMBfemale33neutral.jpg\"/> <br/> <span style=\"margin-right: 150px;\">1. Carol</span> <span style=\"margin-left: 150px;\">2. Ashley</span>","time_elapsed":160370,"isRecall":true,"lure":"Carol","names":["Carol","Ashley"],"response":"2","trial_type":"html-keyboard-response","cat":"age 30-49/Female","name":"Ashley","trial_index":34,"picId":"EMBfemale33neutral.jpg","userId":"524d2272-d17f-42aa-b335-772a7ac10972","dateTime":"2021-11-10T16:40:51.036Z","isRelevant":true},{"internal_node_id":"0.0-0.0-12.0-0.1","rt":1215,"isLearning":true,"correct":true,"stimulus":"<p>What is the person's name?</p><img src=\"https://d3vowlh1lzbs4j.cloudfront.net/face/TMWfemale61neutral.jpg\"/> <br/> <span style=\"margin-right: 150px;\">1. Carol</span> <span style=\"margin-left: 150px;\">2. Jessica</span>","time_elapsed":161586,"isRecall":true,"lure":"Jessica","names":["Carol","Jessica"],"response":"1","trial_type":"html-keyboard-response","cat":"age 50-69/Female","name":"Carol","trial_index":35,"picId":"TMWfemale61neutral.jpg","userId":"524d2272-d17f-42aa-b335-772a7ac10972","dateTime":"2021-11-10T16:40:52.252Z","isRelevant":true},{"internal_node_id":"0.0-0.0-12.0-0.2","rt":1255,"isLearning":true,"correct":true,"stimulus":"<p>What is the person's name?</p><img src=\"https://d3vowlh1lzbs4j.cloudfront.net/face/EMWmale19-2neutral.jpg\"/> <br/> <span style=\"margin-right: 150px;\">1. George</span> <span style=\"margin-left: 150px;\">2. Thomas</span>","time_elapsed":162843,"isRecall":true,"lure":"George","names":["George","Thomas"],"response":"2","trial_type":"html-keyboard-response","cat":"age18-29/Male","name":"Thomas","trial_index":36,"picId":"EMWmale19-2neutral.jpg","userId":"524d2272-d17f-42aa-b335-772a7ac10972","dateTime":"2021-11-10T16:40:53.509Z","isRelevant":true},{"internal_node_id":"0.0-0.0-12.0-0.3","rt":1255,"isLearning":true,"correct":true,"stimulus":"<p>What is the person's name?</p><img src=\"https://d3vowlh1lzbs4j.cloudfront.net/face/JWfemale92neutral.jpg\"/> <br/> <span style=\"margin-right: 150px;\">1. Dorothy</span> <span style=\"margin-left: 150px;\">2. Carol</span>","time_elapsed":164098,"isRecall":true,"lure":"Carol","names":["Dorothy","Carol"],"response":"1","trial_type":"html-keyboard-response","cat":"age 70-94/Female","name":"Dorothy","trial_index":37,"picId":"JWfemale92neutral.jpg","userId":"524d2272-d17f-42aa-b335-772a7ac10972","dateTime":"2021-11-10T16:40:54.764Z","isRelevant":true},{"internal_node_id":"0.0-0.0-12.0-0.4","rt":1134,"isLearning":true,"correct":true,"stimulus":"<p>What is the person's name?</p><img src=\"https://d3vowlh1lzbs4j.cloudfront.net/face/TMAfemale20neutral.jpg\"/> <br/> <span style=\"margin-right: 150px;\">1. Ashley</span> <span style=\"margin-left: 150px;\">2. Jessica</span>","time_elapsed":165235,"isRecall":true,"lure":"Ashley","names":["Ashley","Jessica"],"response":"2","trial_type":"html-keyboard-response","cat":"age18-29/Female","name":"Jessica","trial_index":38,"picId":"TMAfemale20neutral.jpg","userId":"524d2272-d17f-42aa-b335-772a7ac10972","dateTime":"2021-11-10T16:40:55.901Z","isRelevant":true},{"internal_node_id":"0.0-0.0-12.0-0.5","rt":1222,"isLearning":true,"correct":true,"stimulus":"<p>What is the person's name?</p><img src=\"https://d3vowlh1lzbs4j.cloudfront.net/face/EMWmale33neutral.jpg\"/> <br/> <span style=\"margin-right: 150px;\">1. William</span> <span style=\"margin-left: 150px;\">2. Thomas</span>","time_elapsed":166459,"isRecall":true,"lure":"Thomas","names":["William","Thomas"],"response":"1","trial_type":"html-keyboard-response","cat":"age 30-49/Male","name":"William","trial_index":39,"picId":"EMWmale33neutral.jpg","userId":"524d2272-d17f-42aa-b335-772a7ac10972","dateTime":"2021-11-10T16:40:57.125Z","isRelevant":true},{"internal_node_id":"0.0-0.0-12.0-0.6","rt":2047,"isLearning":true,"correct":true,"stimulus":"<p>What is the person's name?</p><img src=\"https://d3vowlh1lzbs4j.cloudfront.net/face/TMWmale79neutral.jpg\"/> <br/> <span style=\"margin-right: 150px;\">1. William</span> <span style=\"margin-left: 150px;\">2. Donald</span>","time_elapsed":168507,"isRecall":true,"lure":"William","names":["William","Donald"],"response":"2","trial_type":"html-keyboard-response","cat":"age 70-94/Male","name":"Donald","trial_index":40,"picId":"TMWmale79neutral.jpg","userId":"524d2272-d17f-42aa-b335-772a7ac10972","dateTime":"2021-11-10T16:40:59.173Z","isRelevant":true},{"internal_node_id":"0.0-0.0-12.0-0.7","rt":1366,"isLearning":true,"correct":true,"stimulus":"<p>What is the person's name?</p><img src=\"https://d3vowlh1lzbs4j.cloudfront.net/face/Wmale_55-3.jpg\"/> <br/> <span style=\"margin-right: 150px;\">1. Donald</span> <span style=\"margin-left: 150px;\">2. George</span>","time_elapsed":169875,"isRecall":true,"lure":"Donald","names":["Donald","George"],"response":"2","trial_type":"html-keyboard-response","cat":"age 50-69/Male","name":"George","trial_index":41,"picId":"Wmale_55-3.jpg","userId":"524d2272-d17f-42aa-b335-772a7ac10972","dateTime":"2021-11-10T16:41:00.541Z","isRelevant":true},{"taskStarted":true,"userId":"524d2272-d17f-42aa-b335-772a7ac10972","dateTime":"2021-11-11T16:21:01.642Z","isRelevant":false},{"internal_node_id":"0.0-0.0-1.0","success":true,"trial_type":"preload","failed_images":[],"time_elapsed":319,"trial_index":0,"failed_audio":[],"failed_video":[],"timeout":false,"userId":"524d2272-d17f-42aa-b335-772a7ac10972","dateTime":"2021-11-11T16:21:01.962Z","isRelevant":false},{"internal_node_id":"0.0-0.0-2.0","rt":27526,"response":" ","trial_type":"html-keyboard-response","stimulus":"<h2>Face-Name Recognition Task</h2> <p>You are about to start a new task. In this task, you will see pictures of people along with their names and be asked to remember them for a later memory test. You will see each person twice. You will need to remember them for memory tests today and on subsequent days.</p> <em>Press the space bar to continue</em>","time_elapsed":27847,"trial_index":1,"userId":"524d2272-d17f-42aa-b335-772a7ac10972","dateTime":"2021-11-11T16:21:29.489Z","isRelevant":false},{"internal_node_id":"0.0-0.0-3.0","rt":3287,"response":" ","trial_type":"html-keyboard-response","stimulus":"<p>Now we will begin the actual task. You will see pictures of people along with their names. Please try to remember them for memory tests that will happen later today and on subsequent days.</p> <em>Press the space bar to continue</em>","time_elapsed":31135,"trial_index":2,"userId":"524d2272-d17f-42aa-b335-772a7ac10972","dateTime":"2021-11-11T16:21:32.778Z","isRelevant":false},{"internal_node_id":"0.0-0.0-4.0-0.0","rt":null,"isLearning":true,"response":null,"trial_type":"html-keyboard-response","stimulus":"<p>Read and memorize</p><img src=\"https://d3vowlh1lzbs4j.cloudfront.net/face/TMWmale34-2neutral.jpg\"/> <br/> Robert","cat":"age 30-49/Male","time_elapsed":36140,"name":"Robert","trial_index":3,"picId":"TMWmale34-2neutral.jpg","userId":"524d2272-d17f-42aa-b335-772a7ac10972","dateTime":"2021-11-11T16:21:37.782Z","isRelevant":false},{"internal_node_id":"0.0-0.0-4.0-0.1","rt":null,"isLearning":true,"response":null,"trial_type":"html-keyboard-response","stimulus":"<p>Read and memorize</p><img src=\"https://d3vowlh1lzbs4j.cloudfront.net/face/TSFWmale77-2neutral.jpg\"/> <br/> Brian","cat":"age 70-94/Male","time_elapsed":41143,"name":"Brian","trial_index":4,"picId":"TSFWmale77-2neutral.jpg","userId":"524d2272-d17f-42aa-b335-772a7ac10972","dateTime":"2021-11-11T16:21:42.786Z","isRelevant":false},{"internal_node_id":"0.0-0.0-4.0-0.2","rt":null,"isLearning":true,"response":null,"trial_type":"html-keyboard-response","stimulus":"<p>Read and memorize</p><img src=\"https://d3vowlh1lzbs4j.cloudfront.net/face/TSFWfemale65-7neutral.jpg\"/> <br/> Sharon","cat":"age 50-69/Female","time_elapsed":46148,"name":"Sharon","trial_index":5,"picId":"TSFWfemale65-7neutral.jpg","userId":"524d2272-d17f-42aa-b335-772a7ac10972","dateTime":"2021-11-11T16:21:47.790Z","isRelevant":false},{"internal_node_id":"0.0-0.0-4.0-0.3","rt":null,"isLearning":true,"response":null,"trial_type":"html-keyboard-response","stimulus":"<p>Read and memorize</p><img src=\"https://d3vowlh1lzbs4j.cloudfront.net/face/EMBmale55neutral.jpg\"/> <br/> Andrew","cat":"age 50-69/Male","time_elapsed":51149,"name":"Andrew","trial_index":6,"picId":"EMBmale55neutral.jpg","userId":"524d2272-d17f-42aa-b335-772a7ac10972","dateTime":"2021-11-11T16:21:52.792Z","isRelevant":false},{"internal_node_id":"0.0-0.0-4.0-0.4","rt":null,"isLearning":true,"response":null,"trial_type":"html-keyboard-response","stimulus":"<p>Read and memorize</p><img src=\"https://d3vowlh1lzbs4j.cloudfront.net/face/JWfemale70-2neutral.jpg\"/> <br/> Betty","cat":"age 70-94/Female","time_elapsed":56153,"name":"Betty","trial_index":7,"picId":"JWfemale70-2neutral.jpg","userId":"524d2272-d17f-42aa-b335-772a7ac10972","dateTime":"2021-11-11T16:21:57.795Z","isRelevant":false},{"internal_node_id":"0.0-0.0-4.0-0.5","rt":null,"isLearning":true,"response":null,"trial_type":"html-keyboard-response","stimulus":"<p>Read and memorize</p><img src=\"https://d3vowlh1lzbs4j.cloudfront.net/face/TMWmale20-2neutral.jpg\"/> <br/> James","cat":"age18-29/Male","time_elapsed":61157,"name":"James","trial_index":8,"picId":"TMWmale20-2neutral.jpg","userId":"524d2272-d17f-42aa-b335-772a7ac10972","dateTime":"2021-11-11T16:22:02.799Z","isRelevant":false},{"internal_node_id":"0.0-0.0-4.0-0.6","rt":null,"isLearning":true,"response":null,"trial_type":"html-keyboard-response","stimulus":"<p>Read and memorize</p><img src=\"https://d3vowlh1lzbs4j.cloudfront.net/face/TMBfemale19neutral.jpg\"/> <br/> Patricia","cat":"age18-29/Female","time_elapsed":66159,"name":"Patricia","trial_index":9,"picId":"TMBfemale19neutral.jpg","userId":"524d2272-d17f-42aa-b335-772a7ac10972","dateTime":"2021-11-11T16:22:07.801Z","isRelevant":false},{"internal_node_id":"0.0-0.0-4.0-0.7","rt":null,"isLearning":true,"response":null,"trial_type":"html-keyboard-response","stimulus":"<p>Read and memorize</p><img src=\"https://d3vowlh1lzbs4j.cloudfront.net/face/TMWfemale36-2neutral.jpg\"/> <br/> Linda","cat":"age 30-49/Female","time_elapsed":71162,"name":"Linda","trial_index":10,"picId":"TMWfemale36-2neutral.jpg","userId":"524d2272-d17f-42aa-b335-772a7ac10972","dateTime":"2021-11-11T16:22:12.805Z","isRelevant":false},{"internal_node_id":"0.0-0.0-5.0-0.0","rt":null,"isLearning":true,"response":null,"trial_type":"html-keyboard-response","stimulus":"<p>Read and memorize</p><img src=\"https://d3vowlh1lzbs4j.cloudfront.net/face/TMWmale34-2neutral.jpg\"/> <br/> Robert","cat":"age 30-49/Male","time_elapsed":76167,"name":"Robert","trial_index":11,"picId":"TMWmale34-2neutral.jpg","userId":"524d2272-d17f-42aa-b335-772a7ac10972","dateTime":"2021-11-11T16:22:17.809Z","isRelevant":false},{"internal_node_id":"0.0-0.0-5.0-0.1","rt":null,"isLearning":true,"response":null,"trial_type":"html-keyboard-response","stimulus":"<p>Read and memorize</p><img src=\"https://d3vowlh1lzbs4j.cloudfront.net/face/TSFWmale77-2neutral.jpg\"/> <br/> Brian","cat":"age 70-94/Male","time_elapsed":81173,"name":"Brian","trial_index":12,"picId":"TSFWmale77-2neutral.jpg","userId":"524d2272-d17f-42aa-b335-772a7ac10972","dateTime":"2021-11-11T16:22:22.815Z","isRelevant":false},{"internal_node_id":"0.0-0.0-5.0-0.2","rt":null,"isLearning":true,"response":null,"trial_type":"html-keyboard-response","stimulus":"<p>Read and memorize</p><img src=\"https://d3vowlh1lzbs4j.cloudfront.net/face/TSFWfemale65-7neutral.jpg\"/> <br/> Sharon","cat":"age 50-69/Female","time_elapsed":86174,"name":"Sharon","trial_index":13,"picId":"TSFWfemale65-7neutral.jpg","userId":"524d2272-d17f-42aa-b335-772a7ac10972","dateTime":"2021-11-11T16:22:27.816Z","isRelevant":false},{"internal_node_id":"0.0-0.0-5.0-0.3","rt":null,"isLearning":true,"response":null,"trial_type":"html-keyboard-response","stimulus":"<p>Read and memorize</p><img src=\"https://d3vowlh1lzbs4j.cloudfront.net/face/EMBmale55neutral.jpg\"/> <br/> Andrew","cat":"age 50-69/Male","time_elapsed":91178,"name":"Andrew","trial_index":14,"picId":"EMBmale55neutral.jpg","userId":"524d2272-d17f-42aa-b335-772a7ac10972","dateTime":"2021-11-11T16:22:32.820Z","isRelevant":false},{"internal_node_id":"0.0-0.0-5.0-0.4","rt":null,"isLearning":true,"response":null,"trial_type":"html-keyboard-response","stimulus":"<p>Read and memorize</p><img src=\"https://d3vowlh1lzbs4j.cloudfront.net/face/JWfemale70-2neutral.jpg\"/> <br/> Betty","cat":"age 70-94/Female","time_elapsed":96183,"name":"Betty","trial_index":15,"picId":"JWfemale70-2neutral.jpg","userId":"524d2272-d17f-42aa-b335-772a7ac10972","dateTime":"2021-11-11T16:22:37.825Z","isRelevant":false},{"internal_node_id":"0.0-0.0-5.0-0.5","rt":null,"isLearning":true,"response":null,"trial_type":"html-keyboard-response","stimulus":"<p>Read and memorize</p><img src=\"https://d3vowlh1lzbs4j.cloudfront.net/face/TMWmale20-2neutral.jpg\"/> <br/> James","cat":"age18-29/Male","time_elapsed":101187,"name":"James","trial_index":16,"picId":"TMWmale20-2neutral.jpg","userId":"524d2272-d17f-42aa-b335-772a7ac10972","dateTime":"2021-11-11T16:22:42.829Z","isRelevant":false},{"internal_node_id":"0.0-0.0-5.0-0.6","rt":null,"isLearning":true,"response":null,"trial_type":"html-keyboard-response","stimulus":"<p>Read and memorize</p><img src=\"https://d3vowlh1lzbs4j.cloudfront.net/face/TMBfemale19neutral.jpg\"/> <br/> Patricia","cat":"age18-29/Female","time_elapsed":106191,"name":"Patricia","trial_index":17,"picId":"TMBfemale19neutral.jpg","userId":"524d2272-d17f-42aa-b335-772a7ac10972","dateTime":"2021-11-11T16:22:47.833Z","isRelevant":false},{"internal_node_id":"0.0-0.0-5.0-0.7","rt":null,"isLearning":true,"response":null,"trial_type":"html-keyboard-response","stimulus":"<p>Read and memorize</p><img src=\"https://d3vowlh1lzbs4j.cloudfront.net/face/TMWfemale36-2neutral.jpg\"/> <br/> Linda","cat":"age 30-49/Female","time_elapsed":111193,"name":"Linda","trial_index":18,"picId":"TMWfemale36-2neutral.jpg","userId":"524d2272-d17f-42aa-b335-772a7ac10972","dateTime":"2021-11-11T16:22:52.835Z","isRelevant":false},{"internal_node_id":"0.0-0.0-6.0","rt":10737,"response":" ","trial_type":"html-keyboard-response","stimulus":"<h2>Memory test</h2> <p>Now you will be tested on your memory. You will see the people and names you just learned today as well as those you learned in the last session. Please select option 1 or 2 to indicate the name of the person.</p> <em>Press the space bar to continue</em>","time_elapsed":121930,"trial_index":19,"userId":"524d2272-d17f-42aa-b335-772a7ac10972","dateTime":"2021-11-11T16:23:03.572Z","isRelevant":false},{"internal_node_id":"0.0-0.0-7.0-0.0","rt":2239,"isLearning":true,"correct":true,"stimulus":"<p>What is the person's name?</p><img src=\"https://d3vowlh1lzbs4j.cloudfront.net/face/TMBfemale19neutral.jpg\"/> <br/> <span style=\"margin-right: 150px;\">1. Linda</span> <span style=\"margin-left: 150px;\">2. Patricia</span>","time_elapsed":124170,"isRecall":true,"lure":"Linda","names":["Linda","Patricia"],"response":"2","trial_type":"html-keyboard-response","cat":"age18-29/Female","name":"Patricia","trial_index":20,"picId":"TMBfemale19neutral.jpg","userId":"524d2272-d17f-42aa-b335-772a7ac10972","dateTime":"2021-11-11T16:23:05.813Z","isRelevant":true},{"internal_node_id":"0.0-0.0-7.0-0.1","rt":1590,"isLearning":true,"correct":true,"stimulus":"<p>What is the person's name?</p><img src=\"https://d3vowlh1lzbs4j.cloudfront.net/face/JWfemale92neutral.jpg\"/> <br/> <span style=\"margin-right: 150px;\">1. Dorothy</span> <span style=\"margin-left: 150px;\">2. Carol</span>","time_elapsed":125762,"isRecall":true,"lure":"Carol","names":["Dorothy","Carol"],"response":"1","trial_type":"html-keyboard-response","cat":"age 70-94/Female","name":"Dorothy","trial_index":21,"picId":"JWfemale92neutral.jpg","userId":"524d2272-d17f-42aa-b335-772a7ac10972","dateTime":"2021-11-11T16:23:07.404Z","isRelevant":true},{"internal_node_id":"0.0-0.0-7.0-0.2","rt":998,"isLearning":true,"correct":true,"stimulus":"<p>What is the person's name?</p><img src=\"https://d3vowlh1lzbs4j.cloudfront.net/face/TMAfemale20neutral.jpg\"/> <br/> <span style=\"margin-right: 150px;\">1. Jessica</span> <span style=\"margin-left: 150px;\">2. Ashley</span>","time_elapsed":126763,"isRecall":true,"lure":"Ashley","names":["Jessica","Ashley"],"response":"1","trial_type":"html-keyboard-response","cat":"age18-29/Female","name":"Jessica","trial_index":22,"picId":"TMAfemale20neutral.jpg","userId":"524d2272-d17f-42aa-b335-772a7ac10972","dateTime":"2021-11-11T16:23:08.405Z","isRelevant":true},{"internal_node_id":"0.0-0.0-7.0-0.3","rt":2103,"isLearning":true,"correct":true,"stimulus":"<p>What is the person's name?</p><img src=\"https://d3vowlh1lzbs4j.cloudfront.net/face/TMWmale34-2neutral.jpg\"/> <br/> <span style=\"margin-right: 150px;\">1. Robert</span> <span style=\"margin-left: 150px;\">2. James</span>","time_elapsed":128866,"isRecall":true,"lure":"James","names":["Robert","James"],"response":"1","trial_type":"html-keyboard-response","cat":"age 30-49/Male","name":"Robert","trial_index":23,"picId":"TMWmale34-2neutral.jpg","userId":"524d2272-d17f-42aa-b335-772a7ac10972","dateTime":"2021-11-11T16:23:10.509Z","isRelevant":true},{"internal_node_id":"0.0-0.0-7.0-0.4","rt":1615,"isLearning":true,"correct":true,"stimulus":"<p>What is the person's name?</p><img src=\"https://d3vowlh1lzbs4j.cloudfront.net/face/JWfemale70-2neutral.jpg\"/> <br/> <span style=\"margin-right: 150px;\">1. Betty</span> <span style=\"margin-left: 150px;\">2. Sharon</span>","time_elapsed":130482,"isRecall":true,"lure":"Sharon","names":["Betty","Sharon"],"response":"1","trial_type":"html-keyboard-response","cat":"age 70-94/Female","name":"Betty","trial_index":24,"picId":"JWfemale70-2neutral.jpg","userId":"524d2272-d17f-42aa-b335-772a7ac10972","dateTime":"2021-11-11T16:23:12.124Z","isRelevant":true},{"internal_node_id":"0.0-0.0-7.0-0.5","rt":1342,"isLearning":true,"correct":true,"stimulus":"<p>What is the person's name?</p><img src=\"https://d3vowlh1lzbs4j.cloudfront.net/face/EMBmale55neutral.jpg\"/> <br/> <span style=\"margin-right: 150px;\">1. Andrew</span> <span style=\"margin-left: 150px;\">2. Robert</span>","time_elapsed":131827,"isRecall":true,"lure":"Robert","names":["Andrew","Robert"],"response":"1","trial_type":"html-keyboard-response","cat":"age 50-69/Male","name":"Andrew","trial_index":25,"picId":"EMBmale55neutral.jpg","userId":"524d2272-d17f-42aa-b335-772a7ac10972","dateTime":"2021-11-11T16:23:13.469Z","isRelevant":true},{"internal_node_id":"0.0-0.0-7.0-0.6","rt":1399,"isLearning":true,"correct":true,"stimulus":"<p>What is the person's name?</p><img src=\"https://d3vowlh1lzbs4j.cloudfront.net/face/EMWmale19-2neutral.jpg\"/> <br/> <span style=\"margin-right: 150px;\">1. Thomas</span> <span style=\"margin-left: 150px;\">2. George</span>","time_elapsed":133227,"isRecall":true,"lure":"George","names":["Thomas","George"],"response":"1","trial_type":"html-keyboard-response","cat":"age18-29/Male","name":"Thomas","trial_index":26,"picId":"EMWmale19-2neutral.jpg","userId":"524d2272-d17f-42aa-b335-772a7ac10972","dateTime":"2021-11-11T16:23:14.869Z","isRelevant":true},{"internal_node_id":"0.0-0.0-7.0-0.7","rt":1255,"isLearning":true,"correct":true,"stimulus":"<p>What is the person's name?</p><img src=\"https://d3vowlh1lzbs4j.cloudfront.net/face/TMWmale79neutral.jpg\"/> <br/> <span style=\"margin-right: 150px;\">1. Donald</span> <span style=\"margin-left: 150px;\">2. William</span>","time_elapsed":134483,"isRecall":true,"lure":"William","names":["Donald","William"],"response":"1","trial_type":"html-keyboard-response","cat":"age 70-94/Male","name":"Donald","trial_index":27,"picId":"TMWmale79neutral.jpg","userId":"524d2272-d17f-42aa-b335-772a7ac10972","dateTime":"2021-11-11T16:23:16.125Z","isRelevant":true},{"internal_node_id":"0.0-0.0-7.0-0.8","rt":1647,"isLearning":true,"correct":true,"stimulus":"<p>What is the person's name?</p><img src=\"https://d3vowlh1lzbs4j.cloudfront.net/face/Wmale_55-3.jpg\"/> <br/> <span style=\"margin-right: 150px;\">1. Donald</span> <span style=\"margin-left: 150px;\">2. George</span>","time_elapsed":136130,"isRecall":true,"lure":"Donald","names":["Donald","George"],"response":"2","trial_type":"html-keyboard-response","cat":"age 50-69/Male","name":"George","trial_index":28,"picId":"Wmale_55-3.jpg","userId":"524d2272-d17f-42aa-b335-772a7ac10972","dateTime":"2021-11-11T16:23:17.772Z","isRelevant":true},{"internal_node_id":"0.0-0.0-7.0-0.9","rt":1270,"isLearning":true,"correct":true,"stimulus":"<p>What is the person's name?</p><img src=\"https://d3vowlh1lzbs4j.cloudfront.net/face/TMWmale20-2neutral.jpg\"/> <br/> <span style=\"margin-right: 150px;\">1. James</span> <span style=\"margin-left: 150px;\">2. Brian</span>","time_elapsed":137402,"isRecall":true,"lure":"Brian","names":["James","Brian"],"response":"1","trial_type":"html-keyboard-response","cat":"age18-29/Male","name":"James","trial_index":29,"picId":"TMWmale20-2neutral.jpg","userId":"524d2272-d17f-42aa-b335-772a7ac10972","dateTime":"2021-11-11T16:23:19.044Z","isRelevant":true},{"internal_node_id":"0.0-0.0-7.0-0.10","rt":2814,"isLearning":true,"correct":true,"stimulus":"<p>What is the person's name?</p><img src=\"https://d3vowlh1lzbs4j.cloudfront.net/face/TSFWmale77-2neutral.jpg\"/> <br/> <span style=\"margin-right: 150px;\">1. Brian</span> <span style=\"margin-left: 150px;\">2. Andrew</span>","time_elapsed":140219,"isRecall":true,"lure":"Andrew","names":["Brian","Andrew"],"response":"1","trial_type":"html-keyboard-response","cat":"age 70-94/Male","name":"Brian","trial_index":30,"picId":"TSFWmale77-2neutral.jpg","userId":"524d2272-d17f-42aa-b335-772a7ac10972","dateTime":"2021-11-11T16:23:21.861Z","isRelevant":true},{"internal_node_id":"0.0-0.0-7.0-0.11","rt":1286,"isLearning":true,"correct":true,"stimulus":"<p>What is the person's name?</p><img src=\"https://d3vowlh1lzbs4j.cloudfront.net/face/EMWmale33neutral.jpg\"/> <br/> <span style=\"margin-right: 150px;\">1. Thomas</span> <span style=\"margin-left: 150px;\">2. William</span>","time_elapsed":141507,"isRecall":true,"lure":"Thomas","names":["Thomas","William"],"response":"2","trial_type":"html-keyboard-response","cat":"age 30-49/Male","name":"William","trial_index":31,"picId":"EMWmale33neutral.jpg","userId":"524d2272-d17f-42aa-b335-772a7ac10972","dateTime":"2021-11-11T16:23:23.149Z","isRelevant":true},{"internal_node_id":"0.0-0.0-7.0-0.12","rt":1310,"isLearning":true,"correct":true,"stimulus":"<p>What is the person's name?</p><img src=\"https://d3vowlh1lzbs4j.cloudfront.net/face/EMBfemale33neutral.jpg\"/> <br/> <span style=\"margin-right: 150px;\">1. Ashley</span> <span style=\"margin-left: 150px;\">2. Carol</span>","time_elapsed":142818,"isRecall":true,"lure":"Carol","names":["Ashley","Carol"],"response":"1","trial_type":"html-keyboard-response","cat":"age 30-49/Female","name":"Ashley","trial_index":32,"picId":"EMBfemale33neutral.jpg","userId":"524d2272-d17f-42aa-b335-772a7ac10972","dateTime":"2021-11-11T16:23:24.461Z","isRelevant":true},{"internal_node_id":"0.0-0.0-7.0-0.13","rt":1238,"isLearning":true,"correct":true,"stimulus":"<p>What is the person's name?</p><img src=\"https://d3vowlh1lzbs4j.cloudfront.net/face/TMWfemale61neutral.jpg\"/> <br/> <span style=\"margin-right: 150px;\">1. Carol</span> <span style=\"margin-left: 150px;\">2. Jessica</span>","time_elapsed":144059,"isRecall":true,"lure":"Jessica","names":["Carol","Jessica"],"response":"1","trial_type":"html-keyboard-response","cat":"age 50-69/Female","name":"Carol","trial_index":33,"picId":"TMWfemale61neutral.jpg","userId":"524d2272-d17f-42aa-b335-772a7ac10972","dateTime":"2021-11-11T16:23:25.701Z","isRelevant":true},{"internal_node_id":"0.0-0.0-7.0-0.14","rt":2359,"isLearning":true,"correct":true,"stimulus":"<p>What is the person's name?</p><img src=\"https://d3vowlh1lzbs4j.cloudfront.net/face/TSFWfemale65-7neutral.jpg\"/> <br/> <span style=\"margin-right: 150px;\">1. Patricia</span> <span style=\"margin-left: 150px;\">2. Sharon</span>","time_elapsed":146419,"isRecall":true,"lure":"Patricia","names":["Patricia","Sharon"],"response":"2","trial_type":"html-keyboard-response","cat":"age 50-69/Female","name":"Sharon","trial_index":34,"picId":"TSFWfemale65-7neutral.jpg","userId":"524d2272-d17f-42aa-b335-772a7ac10972","dateTime":"2021-11-11T16:23:28.061Z","isRelevant":true},{"internal_node_id":"0.0-0.0-7.0-0.15","rt":1406,"isLearning":true,"correct":true,"stimulus":"<p>What is the person's name?</p><img src=\"https://d3vowlh1lzbs4j.cloudfront.net/face/TMWfemale36-2neutral.jpg\"/> <br/> <span style=\"margin-right: 150px;\">1. Linda</span> <span style=\"margin-left: 150px;\">2. Betty</span>","time_elapsed":147827,"isRecall":true,"lure":"Betty","names":["Linda","Betty"],"response":"1","trial_type":"html-keyboard-response","cat":"age 30-49/Female","name":"Linda","trial_index":35,"picId":"TMWfemale36-2neutral.jpg","userId":"524d2272-d17f-42aa-b335-772a7ac10972","dateTime":"2021-11-11T16:23:29.469Z","isRelevant":true},{"ua":"Mozilla/5.0 (Macintosh; Intel Mac OS X 10.15; rv:94.0) Gecko/20100101 Firefox/94.0","userId":"524d2272-d17f-42aa-b335-772a7ac10972","dateTime":"2021-11-11T16:23:29.470Z","isRelevant":false},{"taskStarted":true,"userId":"524d2272-d17f-42aa-b335-772a7ac10972","dateTime":"2021-11-13T00:13:56.137Z","isRelevant":false},{"internal_node_id":"0.0-0.0-1.0","success":true,"trial_type":"preload","failed_images":[],"time_elapsed":161,"trial_index":0,"failed_audio":[],"failed_video":[],"timeout":false,"userId":"524d2272-d17f-42aa-b335-772a7ac10972","dateTime":"2021-11-13T00:13:56.297Z","isRelevant":false},{"internal_node_id":"0.0-0.0-2.0","rt":29084,"response":" ","trial_type":"html-keyboard-response","stimulus":"<h2>Face-Name Recognition Task</h2> <p>You are about to start a new task. In this task, you will see pictures of people along with their names and be asked to remember them for a later memory test. You will see each person twice. You will need to remember them for memory tests today and on subsequent days.</p> <em>Press the space bar to continue</em>","time_elapsed":29245,"trial_index":1,"userId":"524d2272-d17f-42aa-b335-772a7ac10972","dateTime":"2021-11-13T00:14:25.381Z","isRelevant":false},{"internal_node_id":"0.0-0.0-3.0","rt":2215,"response":" ","trial_type":"html-keyboard-response","stimulus":"<p>Now we will begin the actual task. You will see pictures of people along with their names. Please try to remember them for memory tests that will happen later today and on subsequent days.</p> <em>Press the space bar to continue</em>","time_elapsed":31461,"trial_index":2,"userId":"524d2272-d17f-42aa-b335-772a7ac10972","dateTime":"2021-11-13T00:14:27.598Z","isRelevant":false},{"internal_node_id":"0.0-0.0-4.0-0.0","rt":null,"isLearning":true,"response":null,"trial_type":"html-keyboard-response","stimulus":"<p>Read and memorize</p><img src=\"https://d3vowlh1lzbs4j.cloudfront.net/face/TMBmale30neutral.jpg\"/> <br/> Charles","cat":"age 30-49/Male","time_elapsed":36464,"name":"Charles","trial_index":3,"picId":"TMBmale30neutral.jpg","userId":"524d2272-d17f-42aa-b335-772a7ac10972","dateTime":"2021-11-13T00:14:32.601Z","isRelevant":false},{"internal_node_id":"0.0-0.0-4.0-0.1","rt":null,"isLearning":true,"response":null,"trial_type":"html-keyboard-response","stimulus":"<p>Read and memorize</p><img src=\"https://d3vowlh1lzbs4j.cloudfront.net/face/JWfemale70neutral.jpg\"/> <br/> Helen","cat":"age 70-94/Female","time_elapsed":41469,"name":"Helen","trial_index":4,"picId":"JWfemale70neutral.jpg","userId":"524d2272-d17f-42aa-b335-772a7ac10972","dateTime":"2021-11-13T00:14:37.605Z","isRelevant":false},{"internal_node_id":"0.0-0.0-4.0-0.2","rt":null,"isLearning":true,"response":null,"trial_type":"html-keyboard-response","stimulus":"<p>Read and memorize</p><img src=\"https://d3vowlh1lzbs4j.cloudfront.net/face/EMWfemale30neutral.jpg\"/> <br/> Anna","cat":"age 30-49/Female","time_elapsed":46472,"name":"Anna","trial_index":5,"picId":"EMWfemale30neutral.jpg","userId":"524d2272-d17f-42aa-b335-772a7ac10972","dateTime":"2021-11-13T00:14:42.609Z","isRelevant":false},{"internal_node_id":"0.0-0.0-4.0-0.3","rt":null,"isLearning":true,"response":null,"trial_type":"html-keyboard-response","stimulus":"<p>Read and memorize</p><img src=\"https://d3vowlh1lzbs4j.cloudfront.net/face/EMIfemale25neutral.jpg\"/> <br/> Lisa","cat":"age18-29/Female","time_elapsed":51477,"name":"Lisa","trial_index":6,"picId":"EMIfemale25neutral.jpg","userId":"524d2272-d17f-42aa-b335-772a7ac10972","dateTime":"2021-11-13T00:14:47.613Z","isRelevant":false},{"internal_node_id":"0.0-0.0-4.0-0.4","rt":null,"isLearning":true,"response":null,"trial_type":"html-keyboard-response","stimulus":"<p>Read and memorize</p><img src=\"https://d3vowlh1lzbs4j.cloudfront.net/face/EMWmale52neutral.jpg\"/> <br/> Gary","cat":"age 50-69/Male","time_elapsed":56480,"name":"Gary","trial_index":7,"picId":"EMWmale52neutral.jpg","userId":"524d2272-d17f-42aa-b335-772a7ac10972","dateTime":"2021-11-13T00:14:52.616Z","isRelevant":false},{"internal_node_id":"0.0-0.0-4.0-0.5","rt":null,"isLearning":true,"response":null,"trial_type":"html-keyboard-response","stimulus":"<p>Read and memorize</p><img src=\"https://d3vowlh1lzbs4j.cloudfront.net/face/TSFWmale70neutral.jpg\"/> <br/> Jonathan","cat":"age 70-94/Male","time_elapsed":61484,"name":"Jonathan","trial_index":8,"picId":"TSFWmale70neutral.jpg","userId":"524d2272-d17f-42aa-b335-772a7ac10972","dateTime":"2021-11-13T00:14:57.620Z","isRelevant":false},{"internal_node_id":"0.0-0.0-4.0-0.6","rt":null,"isLearning":true,"response":null,"trial_type":"html-keyboard-response","stimulus":"<p>Read and memorize</p><img src=\"https://d3vowlh1lzbs4j.cloudfront.net/face/WWmale20-1neutral.jpg\"/> <br/> Joseph","cat":"age18-29/Male","time_elapsed":66488,"name":"Joseph","trial_index":9,"picId":"WWmale20-1neutral.jpg","userId":"524d2272-d17f-42aa-b335-772a7ac10972","dateTime":"2021-11-13T00:15:02.624Z","isRelevant":false},{"internal_node_id":"0.0-0.0-4.0-0.7","rt":null,"isLearning":true,"response":null,"trial_type":"html-keyboard-response","stimulus":"<p>Read and memorize</p><img src=\"https://d3vowlh1lzbs4j.cloudfront.net/face/TSFWfemale66-5neutral.jpg\"/> <br/> Kathleen","cat":"age 50-69/Female","time_elapsed":71490,"name":"Kathleen","trial_index":10,"picId":"TSFWfemale66-5neutral.jpg","userId":"524d2272-d17f-42aa-b335-772a7ac10972","dateTime":"2021-11-13T00:15:07.626Z","isRelevant":false},{"internal_node_id":"0.0-0.0-5.0-0.0","rt":null,"isLearning":true,"response":null,"trial_type":"html-keyboard-response","stimulus":"<p>Read and memorize</p><img src=\"https://d3vowlh1lzbs4j.cloudfront.net/face/TMBmale30neutral.jpg\"/> <br/> Charles","cat":"age 30-49/Male","time_elapsed":76492,"name":"Charles","trial_index":11,"picId":"TMBmale30neutral.jpg","userId":"524d2272-d17f-42aa-b335-772a7ac10972","dateTime":"2021-11-13T00:15:12.628Z","isRelevant":false},{"internal_node_id":"0.0-0.0-5.0-0.1","rt":null,"isLearning":true,"response":null,"trial_type":"html-keyboard-response","stimulus":"<p>Read and memorize</p><img src=\"https://d3vowlh1lzbs4j.cloudfront.net/face/JWfemale70neutral.jpg\"/> <br/> Helen","cat":"age 70-94/Female","time_elapsed":81493,"name":"Helen","trial_index":12,"picId":"JWfemale70neutral.jpg","userId":"524d2272-d17f-42aa-b335-772a7ac10972","dateTime":"2021-11-13T00:15:17.629Z","isRelevant":false},{"internal_node_id":"0.0-0.0-5.0-0.2","rt":null,"isLearning":true,"response":null,"trial_type":"html-keyboard-response","stimulus":"<p>Read and memorize</p><img src=\"https://d3vowlh1lzbs4j.cloudfront.net/face/EMWfemale30neutral.jpg\"/> <br/> Anna","cat":"age 30-49/Female","time_elapsed":86496,"name":"Anna","trial_index":13,"picId":"EMWfemale30neutral.jpg","userId":"524d2272-d17f-42aa-b335-772a7ac10972","dateTime":"2021-11-13T00:15:22.632Z","isRelevant":false},{"internal_node_id":"0.0-0.0-5.0-0.3","rt":null,"isLearning":true,"response":null,"trial_type":"html-keyboard-response","stimulus":"<p>Read and memorize</p><img src=\"https://d3vowlh1lzbs4j.cloudfront.net/face/EMIfemale25neutral.jpg\"/> <br/> Lisa","cat":"age18-29/Female","time_elapsed":91498,"name":"Lisa","trial_index":14,"picId":"EMIfemale25neutral.jpg","userId":"524d2272-d17f-42aa-b335-772a7ac10972","dateTime":"2021-11-13T00:15:27.635Z","isRelevant":false},{"internal_node_id":"0.0-0.0-5.0-0.4","rt":null,"isLearning":true,"response":null,"trial_type":"html-keyboard-response","stimulus":"<p>Read and memorize</p><img src=\"https://d3vowlh1lzbs4j.cloudfront.net/face/EMWmale52neutral.jpg\"/> <br/> Gary","cat":"age 50-69/Male","time_elapsed":96502,"name":"Gary","trial_index":15,"picId":"EMWmale52neutral.jpg","userId":"524d2272-d17f-42aa-b335-772a7ac10972","dateTime":"2021-11-13T00:15:32.638Z","isRelevant":false},{"internal_node_id":"0.0-0.0-5.0-0.5","rt":null,"isLearning":true,"response":null,"trial_type":"html-keyboard-response","stimulus":"<p>Read and memorize</p><img src=\"https://d3vowlh1lzbs4j.cloudfront.net/face/TSFWmale70neutral.jpg\"/> <br/> Jonathan","cat":"age 70-94/Male","time_elapsed":101505,"name":"Jonathan","trial_index":16,"picId":"TSFWmale70neutral.jpg","userId":"524d2272-d17f-42aa-b335-772a7ac10972","dateTime":"2021-11-13T00:15:37.642Z","isRelevant":false},{"internal_node_id":"0.0-0.0-5.0-0.6","rt":null,"isLearning":true,"response":null,"trial_type":"html-keyboard-response","stimulus":"<p>Read and memorize</p><img src=\"https://d3vowlh1lzbs4j.cloudfront.net/face/WWmale20-1neutral.jpg\"/> <br/> Joseph","cat":"age18-29/Male","time_elapsed":106510,"name":"Joseph","trial_index":17,"picId":"WWmale20-1neutral.jpg","userId":"524d2272-d17f-42aa-b335-772a7ac10972","dateTime":"2021-11-13T00:15:42.646Z","isRelevant":false},{"internal_node_id":"0.0-0.0-5.0-0.7","rt":null,"isLearning":true,"response":null,"trial_type":"html-keyboard-response","stimulus":"<p>Read and memorize</p><img src=\"https://d3vowlh1lzbs4j.cloudfront.net/face/TSFWfemale66-5neutral.jpg\"/> <br/> Kathleen","cat":"age 50-69/Female","time_elapsed":111515,"name":"Kathleen","trial_index":18,"picId":"TSFWfemale66-5neutral.jpg","userId":"524d2272-d17f-42aa-b335-772a7ac10972","dateTime":"2021-11-13T00:15:47.651Z","isRelevant":false},{"internal_node_id":"0.0-0.0-6.0","rt":1508,"response":" ","trial_type":"html-keyboard-response","stimulus":"<h2>Memory test</h2> <p>Now you will be tested on your memory. You will see the people and names you just learned today as well as those you learned in the last session. Please select option 1 or 2 to indicate the name of the person.</p> <em>Press the space bar to continue</em>","time_elapsed":113024,"trial_index":19,"userId":"524d2272-d17f-42aa-b335-772a7ac10972","dateTime":"2021-11-13T00:15:49.161Z","isRelevant":false},{"internal_node_id":"0.0-0.0-7.0-0.0","rt":6654,"isLearning":true,"correct":true,"stimulus":"<p>What is the person's name?</p><img src=\"https://d3vowlh1lzbs4j.cloudfront.net/face/TMWmale34-2neutral.jpg\"/> <br/> <span style=\"margin-right: 150px;\">1. Robert</span> <span style=\"margin-left: 150px;\">2. James</span>","time_elapsed":119680,"isRecall":true,"lure":"James","names":["Robert","James"],"response":"1","trial_type":"html-keyboard-response","cat":"age 30-49/Male","name":"Robert","trial_index":20,"picId":"TMWmale34-2neutral.jpg","userId":"524d2272-d17f-42aa-b335-772a7ac10972","dateTime":"2021-11-13T00:15:55.816Z","isRelevant":true},{"internal_node_id":"0.0-0.0-7.0-0.1","rt":1759,"isLearning":true,"correct":true,"stimulus":"<p>What is the person's name?</p><img src=\"https://d3vowlh1lzbs4j.cloudfront.net/face/JWfemale70neutral.jpg\"/> <br/> <span style=\"margin-right: 150px;\">1. Helen</span> <span style=\"margin-left: 150px;\">2. Anna</span>","time_elapsed":121440,"isRecall":true,"lure":"Anna","names":["Helen","Anna"],"response":"1","trial_type":"html-keyboard-response","cat":"age 70-94/Female","name":"Helen","trial_index":21,"picId":"JWfemale70neutral.jpg","userId":"524d2272-d17f-42aa-b335-772a7ac10972","dateTime":"2021-11-13T00:15:57.577Z","isRelevant":true},{"internal_node_id":"0.0-0.0-7.0-0.2","rt":4919,"isLearning":true,"correct":true,"stimulus":"<p>What is the person's name?</p><img src=\"https://d3vowlh1lzbs4j.cloudfront.net/face/WWmale20-1neutral.jpg\"/> <br/> <span style=\"margin-right: 150px;\">1. Jonathan</span> <span style=\"margin-left: 150px;\">2. Joseph</span>","time_elapsed":126360,"isRecall":true,"lure":"Jonathan","names":["Jonathan","Joseph"],"response":"2","trial_type":"html-keyboard-response","cat":"age18-29/Male","name":"Joseph","trial_index":22,"picId":"WWmale20-1neutral.jpg","userId":"524d2272-d17f-42aa-b335-772a7ac10972","dateTime":"2021-11-13T00:16:02.497Z","isRelevant":true},{"internal_node_id":"0.0-0.0-7.0-0.3","rt":1502,"isLearning":true,"correct":true,"stimulus":"<p>What is the person's name?</p><img src=\"https://d3vowlh1lzbs4j.cloudfront.net/face/EMWmale52neutral.jpg\"/> <br/> <span style=\"margin-right: 150px;\">1. Charles</span> <span style=\"margin-left: 150px;\">2. Gary</span>","time_elapsed":127865,"isRecall":true,"lure":"Charles","names":["Charles","Gary"],"response":"2","trial_type":"html-keyboard-response","cat":"age 50-69/Male","name":"Gary","trial_index":23,"picId":"EMWmale52neutral.jpg","userId":"524d2272-d17f-42aa-b335-772a7ac10972","dateTime":"2021-11-13T00:16:04.001Z","isRelevant":true},{"internal_node_id":"0.0-0.0-7.0-0.4","rt":2686,"isLearning":true,"correct":true,"stimulus":"<p>What is the person's name?</p><img src=\"https://d3vowlh1lzbs4j.cloudfront.net/face/TSFWfemale65-7neutral.jpg\"/> <br/> <span style=\"margin-right: 150px;\">1. Patricia</span> <span style=\"margin-left: 150px;\">2. Sharon</span>","time_elapsed":130553,"isRecall":true,"lure":"Patricia","names":["Patricia","Sharon"],"response":"2","trial_type":"html-keyboard-response","cat":"age 50-69/Female","name":"Sharon","trial_index":24,"picId":"TSFWfemale65-7neutral.jpg","userId":"524d2272-d17f-42aa-b335-772a7ac10972","dateTime":"2021-11-13T00:16:06.689Z","isRelevant":true},{"internal_node_id":"0.0-0.0-7.0-0.5","rt":2199,"isLearning":true,"correct":true,"stimulus":"<p>What is the person's name?</p><img src=\"https://d3vowlh1lzbs4j.cloudfront.net/face/EMWfemale30neutral.jpg\"/> <br/> <span style=\"margin-right: 150px;\">1. Kathleen</span> <span style=\"margin-left: 150px;\">2. Anna</span>","time_elapsed":132753,"isRecall":true,"lure":"Kathleen","names":["Kathleen","Anna"],"response":"2","trial_type":"html-keyboard-response","cat":"age 30-49/Female","name":"Anna","trial_index":25,"picId":"EMWfemale30neutral.jpg","userId":"524d2272-d17f-42aa-b335-772a7ac10972","dateTime":"2021-11-13T00:16:08.889Z","isRelevant":true},{"internal_node_id":"0.0-0.0-7.0-0.6","rt":1598,"isLearning":true,"correct":true,"stimulus":"<p>What is the person's name?</p><img src=\"https://d3vowlh1lzbs4j.cloudfront.net/face/EMIfemale25neutral.jpg\"/> <br/> <span style=\"margin-right: 150px;\">1. Helen</span> <span style=\"margin-left: 150px;\">2. Lisa</span>","time_elapsed":134353,"isRecall":true,"lure":"Helen","names":["Helen","Lisa"],"response":"2","trial_type":"html-keyboard-response","cat":"age18-29/Female","name":"Lisa","trial_index":26,"picId":"EMIfemale25neutral.jpg","userId":"524d2272-d17f-42aa-b335-772a7ac10972","dateTime":"2021-11-13T00:16:10.489Z","isRelevant":true},{"internal_node_id":"0.0-0.0-7.0-0.7","rt":1694,"isLearning":true,"correct":true,"stimulus":"<p>What is the person's name?</p><img src=\"https://d3vowlh1lzbs4j.cloudfront.net/face/TSFWfemale66-5neutral.jpg\"/> <br/> <span style=\"margin-right: 150px;\">1. Lisa</span> <span style=\"margin-left: 150px;\">2. Kathleen</span>","time_elapsed":136049,"isRecall":true,"lure":"Lisa","names":["Lisa","Kathleen"],"response":"2","trial_type":"html-keyboard-response","cat":"age 50-69/Female","name":"Kathleen","trial_index":27,"picId":"TSFWfemale66-5neutral.jpg","userId":"524d2272-d17f-42aa-b335-772a7ac10972","dateTime":"2021-11-13T00:16:12.185Z","isRelevant":true},{"internal_node_id":"0.0-0.0-7.0-0.8","rt":2070,"isLearning":true,"correct":true,"stimulus":"<p>What is the person's name?</p><img src=\"https://d3vowlh1lzbs4j.cloudfront.net/face/TMWfemale36-2neutral.jpg\"/> <br/> <span style=\"margin-right: 150px;\">1. Linda</span> <span style=\"margin-left: 150px;\">2. Betty</span>","time_elapsed":138121,"isRecall":true,"lure":"Betty","names":["Linda","Betty"],"response":"1","trial_type":"html-keyboard-response","cat":"age 30-49/Female","name":"Linda","trial_index":28,"picId":"TMWfemale36-2neutral.jpg","userId":"524d2272-d17f-42aa-b335-772a7ac10972","dateTime":"2021-11-13T00:16:14.257Z","isRelevant":true},{"internal_node_id":"0.0-0.0-7.0-0.9","rt":3887,"isLearning":true,"correct":false,"stimulus":"<p>What is the person's name?</p><img src=\"https://d3vowlh1lzbs4j.cloudfront.net/face/TSFWmale77-2neutral.jpg\"/> <br/> <span style=\"margin-right: 150px;\">1. Andrew</span> <span style=\"margin-left: 150px;\">2. Brian</span>","time_elapsed":142009,"isRecall":true,"lure":"Andrew","names":["Andrew","Brian"],"response":"1","trial_type":"html-keyboard-response","cat":"age 70-94/Male","name":"Brian","trial_index":29,"picId":"TSFWmale77-2neutral.jpg","userId":"524d2272-d17f-42aa-b335-772a7ac10972","dateTime":"2021-11-13T00:16:18.145Z","isRelevant":true},{"internal_node_id":"0.0-0.0-7.0-0.10","rt":4719,"isLearning":true,"correct":false,"stimulus":"<p>What is the person's name?</p><img src=\"https://d3vowlh1lzbs4j.cloudfront.net/face/EMBmale55neutral.jpg\"/> <br/> <span style=\"margin-right: 150px;\">1. Robert</span> <span style=\"margin-left: 150px;\">2. Andrew</span>","time_elapsed":146729,"isRecall":true,"lure":"Robert","names":["Robert","Andrew"],"response":"1","trial_type":"html-keyboard-response","cat":"age 50-69/Male","name":"Andrew","trial_index":30,"picId":"EMBmale55neutral.jpg","userId":"524d2272-d17f-42aa-b335-772a7ac10972","dateTime":"2021-11-13T00:16:22.865Z","isRelevant":true},{"internal_node_id":"0.0-0.0-7.0-0.11","rt":2958,"isLearning":true,"correct":true,"stimulus":"<p>What is the person's name?</p><img src=\"https://d3vowlh1lzbs4j.cloudfront.net/face/TSFWmale70neutral.jpg\"/> <br/> <span style=\"margin-right: 150px;\">1. Gary</span> <span style=\"margin-left: 150px;\">2. Jonathan</span>","time_elapsed":149689,"isRecall":true,"lure":"Gary","names":["Gary","Jonathan"],"response":"2","trial_type":"html-keyboard-response","cat":"age 70-94/Male","name":"Jonathan","trial_index":31,"picId":"TSFWmale70neutral.jpg","userId":"524d2272-d17f-42aa-b335-772a7ac10972","dateTime":"2021-11-13T00:16:25.825Z","isRelevant":true},{"internal_node_id":"0.0-0.0-7.0-0.12","rt":5527,"isLearning":true,"correct":true,"stimulus":"<p>What is the person's name?</p><img src=\"https://d3vowlh1lzbs4j.cloudfront.net/face/TMWmale20-2neutral.jpg\"/> <br/> <span style=\"margin-right: 150px;\">1. Brian</span> <span style=\"margin-left: 150px;\">2. James</span>","time_elapsed":155217,"isRecall":true,"lure":"Brian","names":["Brian","James"],"response":"2","trial_type":"html-keyboard-response","cat":"age18-29/Male","name":"James","trial_index":32,"picId":"TMWmale20-2neutral.jpg","userId":"524d2272-d17f-42aa-b335-772a7ac10972","dateTime":"2021-11-13T00:16:31.354Z","isRelevant":true},{"internal_node_id":"0.0-0.0-7.0-0.13","rt":3319,"isLearning":true,"correct":true,"stimulus":"<p>What is the person's name?</p><img src=\"https://d3vowlh1lzbs4j.cloudfront.net/face/TMBfemale19neutral.jpg\"/> <br/> <span style=\"margin-right: 150px;\">1. Patricia</span> <span style=\"margin-left: 150px;\">2. Linda</span>","time_elapsed":158537,"isRecall":true,"lure":"Linda","names":["Patricia","Linda"],"response":"1","trial_type":"html-keyboard-response","cat":"age18-29/Female","name":"Patricia","trial_index":33,"picId":"TMBfemale19neutral.jpg","userId":"524d2272-d17f-42aa-b335-772a7ac10972","dateTime":"2021-11-13T00:16:34.673Z","isRelevant":true},{"internal_node_id":"0.0-0.0-7.0-0.14","rt":1823,"isLearning":true,"correct":true,"stimulus":"<p>What is the person's name?</p><img src=\"https://d3vowlh1lzbs4j.cloudfront.net/face/TMBmale30neutral.jpg\"/> <br/> <span style=\"margin-right: 150px;\">1. Charles</span> <span style=\"margin-left: 150px;\">2. Joseph</span>","time_elapsed":160362,"isRecall":true,"lure":"Joseph","names":["Charles","Joseph"],"response":"1","trial_type":"html-keyboard-response","cat":"age 30-49/Male","name":"Charles","trial_index":34,"picId":"TMBmale30neutral.jpg","userId":"524d2272-d17f-42aa-b335-772a7ac10972","dateTime":"2021-11-13T00:16:36.498Z","isRelevant":true},{"internal_node_id":"0.0-0.0-7.0-0.15","rt":5518,"isLearning":true,"correct":true,"stimulus":"<p>What is the person's name?</p><img src=\"https://d3vowlh1lzbs4j.cloudfront.net/face/JWfemale70-2neutral.jpg\"/> <br/> <span style=\"margin-right: 150px;\">1. Sharon</span> <span style=\"margin-left: 150px;\">2. Betty</span>","time_elapsed":165882,"isRecall":true,"lure":"Sharon","names":["Sharon","Betty"],"response":"2","trial_type":"html-keyboard-response","cat":"age 70-94/Female","name":"Betty","trial_index":35,"picId":"JWfemale70-2neutral.jpg","userId":"524d2272-d17f-42aa-b335-772a7ac10972","dateTime":"2021-11-13T00:16:42.018Z","isRelevant":true},{"ua":"Mozilla/5.0 (Macintosh; Intel Mac OS X 10.15; rv:94.0) Gecko/20100101 Firefox/94.0","userId":"524d2272-d17f-42aa-b335-772a7ac10972","dateTime":"2021-11-13T00:16:42.019Z","isRelevant":false},{"taskStarted":true,"userId":"524d2272-d17f-42aa-b335-772a7ac10972","dateTime":"2021-11-13T22:48:58.869Z","isRelevant":false},{"internal_node_id":"0.0-0.0-1.0","success":true,"trial_type":"preload","failed_images":[],"time_elapsed":332,"trial_index":0,"failed_audio":[],"failed_video":[],"timeout":false,"userId":"524d2272-d17f-42aa-b335-772a7ac10972","dateTime":"2021-11-13T22:48:59.201Z","isRelevant":false},{"internal_node_id":"0.0-0.0-2.0","rt":36225,"response":" ","trial_type":"html-keyboard-response","stimulus":"<h2>Face-Name Recognition Task</h2> <p>You are about to start a new task. In this task, you will see pictures of people along with their names and be asked to remember them for a later memory test. You will see each person twice. You will need to remember them for memory tests today and on subsequent days.</p> <em>Press the space bar to continue</em>","time_elapsed":36560,"trial_index":1,"userId":"524d2272-d17f-42aa-b335-772a7ac10972","dateTime":"2021-11-13T22:49:35.429Z","isRelevant":false},{"internal_node_id":"0.0-0.0-3.0","rt":4263,"response":" ","trial_type":"html-keyboard-response","stimulus":"<p>Now we will begin the actual task. You will see pictures of people along with their names. Please try to remember them for memory tests that will happen later today and on subsequent days.</p> <em>Press the space bar to continue</em>","time_elapsed":40824,"trial_index":2,"userId":"524d2272-d17f-42aa-b335-772a7ac10972","dateTime":"2021-11-13T22:49:39.693Z","isRelevant":false},{"internal_node_id":"0.0-0.0-4.0-0.0","rt":null,"isLearning":true,"response":null,"trial_type":"html-keyboard-response","stimulus":"<p>Read and memorize</p><img src=\"https://d3vowlh1lzbs4j.cloudfront.net/face/TSFBfemale61neutral.jpg\"/> <br/> Christine","cat":"age 50-69/Female","time_elapsed":45826,"name":"Christine","trial_index":3,"picId":"TSFBfemale61neutral.jpg","userId":"524d2272-d17f-42aa-b335-772a7ac10972","dateTime":"2021-11-13T22:49:44.695Z","isRelevant":false},{"internal_node_id":"0.0-0.0-4.0-0.1","rt":null,"isLearning":true,"response":null,"trial_type":"html-keyboard-response","stimulus":"<p>Read and memorize</p><img src=\"https://d3vowlh1lzbs4j.cloudfront.net/face/WImale23neutral.jpg\"/> <br/> Daniel","cat":"age18-29/Male","time_elapsed":50829,"name":"Daniel","trial_index":4,"picId":"WImale23neutral.jpg","userId":"524d2272-d17f-42aa-b335-772a7ac10972","dateTime":"2021-11-13T22:49:49.698Z","isRelevant":false},{"internal_node_id":"0.0-0.0-4.0-0.2","rt":null,"isLearning":true,"response":null,"trial_type":"html-keyboard-response","stimulus":"<p>Read and memorize</p><img src=\"https://d3vowlh1lzbs4j.cloudfront.net/face/JWfemale76-3neutral.jpg\"/> <br/> Debra","cat":"age 70-94/Female","time_elapsed":55831,"name":"Debra","trial_index":5,"picId":"JWfemale76-3neutral.jpg","userId":"524d2272-d17f-42aa-b335-772a7ac10972","dateTime":"2021-11-13T22:49:54.700Z","isRelevant":false},{"internal_node_id":"0.0-0.0-4.0-0.3","rt":null,"isLearning":true,"response":null,"trial_type":"html-keyboard-response","stimulus":"<p>Read and memorize</p><img src=\"https://d3vowlh1lzbs4j.cloudfront.net/face/TSFWmale87neutral.jpg\"/> <br/> Raymond","cat":"age 70-94/Male","time_elapsed":60833,"name":"Raymond","trial_index":6,"picId":"TSFWmale87neutral.jpg","userId":"524d2272-d17f-42aa-b335-772a7ac10972","dateTime":"2021-11-13T22:49:59.702Z","isRelevant":false},{"internal_node_id":"0.0-0.0-4.0-0.4","rt":null,"isLearning":true,"response":null,"trial_type":"html-keyboard-response","stimulus":"<p>Read and memorize</p><img src=\"https://d3vowlh1lzbs4j.cloudfront.net/face/JWmale69-2neutral.jpg\"/> <br/> Gregory","cat":"age 50-69/Male","time_elapsed":65835,"name":"Gregory","trial_index":7,"picId":"JWmale69-2neutral.jpg","userId":"524d2272-d17f-42aa-b335-772a7ac10972","dateTime":"2021-11-13T22:50:04.704Z","isRelevant":false},{"internal_node_id":"0.0-0.0-4.0-0.5","rt":null,"isLearning":true,"response":null,"trial_type":"html-keyboard-response","stimulus":"<p>Read and memorize</p><img src=\"https://d3vowlh1lzbs4j.cloudfront.net/face/EMBfemale49neutral.jpg\"/> <br/> Kimberly","cat":"age 30-49/Female","time_elapsed":70837,"name":"Kimberly","trial_index":8,"picId":"EMBfemale49neutral.jpg","userId":"524d2272-d17f-42aa-b335-772a7ac10972","dateTime":"2021-11-13T22:50:09.706Z","isRelevant":false},{"internal_node_id":"0.0-0.0-4.0-0.6","rt":null,"isLearning":true,"response":null,"trial_type":"html-keyboard-response","stimulus":"<p>Read and memorize</p><img src=\"https://d3vowlh1lzbs4j.cloudfront.net/face/EMWfemale18-2neutral.jpg\"/> <br/> Susan","cat":"age18-29/Female","time_elapsed":75841,"name":"Susan","trial_index":9,"picId":"EMWfemale18-2neutral.jpg","userId":"524d2272-d17f-42aa-b335-772a7ac10972","dateTime":"2021-11-13T22:50:14.710Z","isRelevant":false},{"internal_node_id":"0.0-0.0-4.0-0.7","rt":null,"isLearning":true,"response":null,"trial_type":"html-keyboard-response","stimulus":"<p>Read and memorize</p><img src=\"https://d3vowlh1lzbs4j.cloudfront.net/face/EMWmale40neutral.jpg\"/> <br/> Anthony","cat":"age 30-49/Male","time_elapsed":80845,"name":"Anthony","trial_index":10,"picId":"EMWmale40neutral.jpg","userId":"524d2272-d17f-42aa-b335-772a7ac10972","dateTime":"2021-11-13T22:50:19.714Z","isRelevant":false},{"internal_node_id":"0.0-0.0-5.0-0.0","rt":null,"isLearning":true,"response":null,"trial_type":"html-keyboard-response","stimulus":"<p>Read and memorize</p><img src=\"https://d3vowlh1lzbs4j.cloudfront.net/face/TSFBfemale61neutral.jpg\"/> <br/> Christine","cat":"age 50-69/Female","time_elapsed":85850,"name":"Christine","trial_index":11,"picId":"TSFBfemale61neutral.jpg","userId":"524d2272-d17f-42aa-b335-772a7ac10972","dateTime":"2021-11-13T22:50:24.719Z","isRelevant":false},{"internal_node_id":"0.0-0.0-5.0-0.1","rt":null,"isLearning":true,"response":null,"trial_type":"html-keyboard-response","stimulus":"<p>Read and memorize</p><img src=\"https://d3vowlh1lzbs4j.cloudfront.net/face/WImale23neutral.jpg\"/> <br/> Daniel","cat":"age18-29/Male","time_elapsed":90855,"name":"Daniel","trial_index":12,"picId":"WImale23neutral.jpg","userId":"524d2272-d17f-42aa-b335-772a7ac10972","dateTime":"2021-11-13T22:50:29.724Z","isRelevant":false},{"internal_node_id":"0.0-0.0-5.0-0.2","rt":null,"isLearning":true,"response":null,"trial_type":"html-keyboard-response","stimulus":"<p>Read and memorize</p><img src=\"https://d3vowlh1lzbs4j.cloudfront.net/face/JWfemale76-3neutral.jpg\"/> <br/> Debra","cat":"age 70-94/Female","time_elapsed":95858,"name":"Debra","trial_index":13,"picId":"JWfemale76-3neutral.jpg","userId":"524d2272-d17f-42aa-b335-772a7ac10972","dateTime":"2021-11-13T22:50:34.727Z","isRelevant":false},{"internal_node_id":"0.0-0.0-5.0-0.3","rt":null,"isLearning":true,"response":null,"trial_type":"html-keyboard-response","stimulus":"<p>Read and memorize</p><img src=\"https://d3vowlh1lzbs4j.cloudfront.net/face/TSFWmale87neutral.jpg\"/> <br/> Raymond","cat":"age 70-94/Male","time_elapsed":100861,"name":"Raymond","trial_index":14,"picId":"TSFWmale87neutral.jpg","userId":"524d2272-d17f-42aa-b335-772a7ac10972","dateTime":"2021-11-13T22:50:39.730Z","isRelevant":false},{"internal_node_id":"0.0-0.0-5.0-0.4","rt":null,"isLearning":true,"response":null,"trial_type":"html-keyboard-response","stimulus":"<p>Read and memorize</p><img src=\"https://d3vowlh1lzbs4j.cloudfront.net/face/JWmale69-2neutral.jpg\"/> <br/> Gregory","cat":"age 50-69/Male","time_elapsed":105863,"name":"Gregory","trial_index":15,"picId":"JWmale69-2neutral.jpg","userId":"524d2272-d17f-42aa-b335-772a7ac10972","dateTime":"2021-11-13T22:50:44.732Z","isRelevant":false},{"internal_node_id":"0.0-0.0-5.0-0.5","rt":null,"isLearning":true,"response":null,"trial_type":"html-keyboard-response","stimulus":"<p>Read and memorize</p><img src=\"https://d3vowlh1lzbs4j.cloudfront.net/face/EMBfemale49neutral.jpg\"/> <br/> Kimberly","cat":"age 30-49/Female","time_elapsed":110864,"name":"Kimberly","trial_index":16,"picId":"EMBfemale49neutral.jpg","userId":"524d2272-d17f-42aa-b335-772a7ac10972","dateTime":"2021-11-13T22:50:49.734Z","isRelevant":false},{"internal_node_id":"0.0-0.0-5.0-0.6","rt":null,"isLearning":true,"response":null,"trial_type":"html-keyboard-response","stimulus":"<p>Read and memorize</p><img src=\"https://d3vowlh1lzbs4j.cloudfront.net/face/EMWfemale18-2neutral.jpg\"/> <br/> Susan","cat":"age18-29/Female","time_elapsed":115873,"name":"Susan","trial_index":17,"picId":"EMWfemale18-2neutral.jpg","userId":"524d2272-d17f-42aa-b335-772a7ac10972","dateTime":"2021-11-13T22:50:54.742Z","isRelevant":false},{"internal_node_id":"0.0-0.0-5.0-0.7","rt":null,"isLearning":true,"response":null,"trial_type":"html-keyboard-response","stimulus":"<p>Read and memorize</p><img src=\"https://d3vowlh1lzbs4j.cloudfront.net/face/EMWmale40neutral.jpg\"/> <br/> Anthony","cat":"age 30-49/Male","time_elapsed":120878,"name":"Anthony","trial_index":18,"picId":"EMWmale40neutral.jpg","userId":"524d2272-d17f-42aa-b335-772a7ac10972","dateTime":"2021-11-13T22:50:59.747Z","isRelevant":false},{"internal_node_id":"0.0-0.0-6.0","rt":1835,"response":" ","trial_type":"html-keyboard-response","stimulus":"<h2>Memory test</h2> <p>Now you will be tested on your memory. You will see the people and names you just learned today as well as those you learned in the last session. Please select option 1 or 2 to indicate the name of the person.</p> <em>Press the space bar to continue</em>","time_elapsed":122715,"trial_index":19,"userId":"524d2272-d17f-42aa-b335-772a7ac10972","dateTime":"2021-11-13T22:51:01.584Z","isRelevant":false},{"internal_node_id":"0.0-0.0-7.0-0.0","rt":2966,"isLearning":true,"correct":true,"stimulus":"<p>What is the person's name?</p><img src=\"https://d3vowlh1lzbs4j.cloudfront.net/face/EMWfemale30neutral.jpg\"/> <br/> <span style=\"margin-right: 150px;\">1. Anna</span> <span style=\"margin-left: 150px;\">2. Kathleen</span>","time_elapsed":125684,"isRecall":true,"lure":"Kathleen","names":["Anna","Kathleen"],"response":"1","trial_type":"html-keyboard-response","cat":"age 30-49/Female","name":"Anna","trial_index":20,"picId":"EMWfemale30neutral.jpg","userId":"524d2272-d17f-42aa-b335-772a7ac10972","dateTime":"2021-11-13T22:51:04.553Z","isRelevant":true},{"internal_node_id":"0.0-0.0-7.0-0.1","rt":2342,"isLearning":true,"correct":true,"stimulus":"<p>What is the person's name?</p><img src=\"https://d3vowlh1lzbs4j.cloudfront.net/face/WImale23neutral.jpg\"/> <br/> <span style=\"margin-right: 150px;\">1. Raymond</span> <span style=\"margin-left: 150px;\">2. Daniel</span>","time_elapsed":128029,"isRecall":true,"lure":"Raymond","names":["Raymond","Daniel"],"response":"2","trial_type":"html-keyboard-response","cat":"age18-29/Male","name":"Daniel","trial_index":21,"picId":"WImale23neutral.jpg","userId":"524d2272-d17f-42aa-b335-772a7ac10972","dateTime":"2021-11-13T22:51:06.898Z","isRelevant":true},{"internal_node_id":"0.0-0.0-7.0-0.2","rt":2895,"isLearning":true,"correct":true,"stimulus":"<p>What is the person's name?</p><img src=\"https://d3vowlh1lzbs4j.cloudfront.net/face/EMWfemale18-2neutral.jpg\"/> <br/> <span style=\"margin-right: 150px;\">1. Christine</span> <span style=\"margin-left: 150px;\">2. Susan</span>","time_elapsed":130926,"isRecall":true,"lure":"Christine","names":["Christine","Susan"],"response":"2","trial_type":"html-keyboard-response","cat":"age18-29/Female","name":"Susan","trial_index":22,"picId":"EMWfemale18-2neutral.jpg","userId":"524d2272-d17f-42aa-b335-772a7ac10972","dateTime":"2021-11-13T22:51:09.795Z","isRelevant":true},{"internal_node_id":"0.0-0.0-7.0-0.3","rt":2063,"isLearning":true,"correct":true,"stimulus":"<p>What is the person's name?</p><img src=\"https://d3vowlh1lzbs4j.cloudfront.net/face/TSFWmale87neutral.jpg\"/> <br/> <span style=\"margin-right: 150px;\">1. Gregory</span> <span style=\"margin-left: 150px;\">2. Raymond</span>","time_elapsed":132991,"isRecall":true,"lure":"Gregory","names":["Gregory","Raymond"],"response":"2","trial_type":"html-keyboard-response","cat":"age 70-94/Male","name":"Raymond","trial_index":23,"picId":"TSFWmale87neutral.jpg","userId":"524d2272-d17f-42aa-b335-772a7ac10972","dateTime":"2021-11-13T22:51:11.860Z","isRelevant":true},{"internal_node_id":"0.0-0.0-7.0-0.4","rt":1943,"isLearning":true,"correct":true,"stimulus":"<p>What is the person's name?</p><img src=\"https://d3vowlh1lzbs4j.cloudfront.net/face/JWmale69-2neutral.jpg\"/> <br/> <span style=\"margin-right: 150px;\">1. Gregory</span> <span style=\"margin-left: 150px;\">2. Anthony</span>","time_elapsed":134935,"isRecall":true,"lure":"Anthony","names":["Gregory","Anthony"],"response":"1","trial_type":"html-keyboard-response","cat":"age 50-69/Male","name":"Gregory","trial_index":24,"picId":"JWmale69-2neutral.jpg","userId":"524d2272-d17f-42aa-b335-772a7ac10972","dateTime":"2021-11-13T22:51:13.804Z","isRelevant":true},{"internal_node_id":"0.0-0.0-7.0-0.5","rt":3976,"isLearning":true,"correct":true,"stimulus":"<p>What is the person's name?</p><img src=\"https://d3vowlh1lzbs4j.cloudfront.net/face/WWmale20-1neutral.jpg\"/> <br/> <span style=\"margin-right: 150px;\">1. Joseph</span> <span style=\"margin-left: 150px;\">2. Jonathan</span>","time_elapsed":138912,"isRecall":true,"lure":"Jonathan","names":["Joseph","Jonathan"],"response":"1","trial_type":"html-keyboard-response","cat":"age18-29/Male","name":"Joseph","trial_index":25,"picId":"WWmale20-1neutral.jpg","userId":"524d2272-d17f-42aa-b335-772a7ac10972","dateTime":"2021-11-13T22:51:17.781Z","isRelevant":true},{"internal_node_id":"0.0-0.0-7.0-0.6","rt":2942,"isLearning":true,"correct":true,"stimulus":"<p>What is the person's name?</p><img src=\"https://d3vowlh1lzbs4j.cloudfront.net/face/TSFWfemale66-5neutral.jpg\"/> <br/> <span style=\"margin-right: 150px;\">1. Lisa</span> <span style=\"margin-left: 150px;\">2. Kathleen</span>","time_elapsed":141856,"isRecall":true,"lure":"Lisa","names":["Lisa","Kathleen"],"response":"2","trial_type":"html-keyboard-response","cat":"age 50-69/Female","name":"Kathleen","trial_index":26,"picId":"TSFWfemale66-5neutral.jpg","userId":"524d2272-d17f-42aa-b335-772a7ac10972","dateTime":"2021-11-13T22:51:20.725Z","isRelevant":true},{"internal_node_id":"0.0-0.0-7.0-0.7","rt":1591,"isLearning":true,"correct":true,"stimulus":"<p>What is the person's name?</p><img src=\"https://d3vowlh1lzbs4j.cloudfront.net/face/TSFBfemale61neutral.jpg\"/> <br/> <span style=\"margin-right: 150px;\">1. Christine</span> <span style=\"margin-left: 150px;\">2. Kimberly</span>","time_elapsed":143449,"isRecall":true,"lure":"Kimberly","names":["Christine","Kimberly"],"response":"1","trial_type":"html-keyboard-response","cat":"age 50-69/Female","name":"Christine","trial_index":27,"picId":"TSFBfemale61neutral.jpg","userId":"524d2272-d17f-42aa-b335-772a7ac10972","dateTime":"2021-11-13T22:51:22.318Z","isRelevant":true},{"internal_node_id":"0.0-0.0-7.0-0.8","rt":1798,"isLearning":true,"correct":true,"stimulus":"<p>What is the person's name?</p><img src=\"https://d3vowlh1lzbs4j.cloudfront.net/face/EMIfemale25neutral.jpg\"/> <br/> <span style=\"margin-right: 150px;\">1. Helen</span> <span style=\"margin-left: 150px;\">2. Lisa</span>","time_elapsed":145249,"isRecall":true,"lure":"Helen","names":["Helen","Lisa"],"response":"2","trial_type":"html-keyboard-response","cat":"age18-29/Female","name":"Lisa","trial_index":28,"picId":"EMIfemale25neutral.jpg","userId":"524d2272-d17f-42aa-b335-772a7ac10972","dateTime":"2021-11-13T22:51:24.118Z","isRelevant":true},{"internal_node_id":"0.0-0.0-7.0-0.9","rt":3966,"isLearning":true,"correct":true,"stimulus":"<p>What is the person's name?</p><img src=\"https://d3vowlh1lzbs4j.cloudfront.net/face/JWfemale70neutral.jpg\"/> <br/> <span style=\"margin-right: 150px;\">1. Helen</span> <span style=\"margin-left: 150px;\">2. Anna</span>","time_elapsed":149217,"isRecall":true,"lure":"Anna","names":["Helen","Anna"],"response":"1","trial_type":"html-keyboard-response","cat":"age 70-94/Female","name":"Helen","trial_index":29,"picId":"JWfemale70neutral.jpg","userId":"524d2272-d17f-42aa-b335-772a7ac10972","dateTime":"2021-11-13T22:51:28.086Z","isRelevant":true},{"internal_node_id":"0.0-0.0-7.0-0.10","rt":4528,"isLearning":true,"correct":true,"stimulus":"<p>What is the person's name?</p><img src=\"https://d3vowlh1lzbs4j.cloudfront.net/face/EMWmale52neutral.jpg\"/> <br/> <span style=\"margin-right: 150px;\">1. Gary</span> <span style=\"margin-left: 150px;\">2. Charles</span>","time_elapsed":153745,"isRecall":true,"lure":"Charles","names":["Gary","Charles"],"response":"1","trial_type":"html-keyboard-response","cat":"age 50-69/Male","name":"Gary","trial_index":30,"picId":"EMWmale52neutral.jpg","userId":"524d2272-d17f-42aa-b335-772a7ac10972","dateTime":"2021-11-13T22:51:32.614Z","isRelevant":true},{"internal_node_id":"0.0-0.0-7.0-0.11","rt":3782,"isLearning":true,"correct":true,"stimulus":"<p>What is the person's name?</p><img src=\"https://d3vowlh1lzbs4j.cloudfront.net/face/EMWmale40neutral.jpg\"/> <br/> <span style=\"margin-right: 150px;\">1. Anthony</span> <span style=\"margin-left: 150px;\">2. Daniel</span>","time_elapsed":157530,"isRecall":true,"lure":"Daniel","names":["Anthony","Daniel"],"response":"1","trial_type":"html-keyboard-response","cat":"age 30-49/Male","name":"Anthony","trial_index":31,"picId":"EMWmale40neutral.jpg","userId":"524d2272-d17f-42aa-b335-772a7ac10972","dateTime":"2021-11-13T22:51:36.399Z","isRelevant":true},{"internal_node_id":"0.0-0.0-7.0-0.12","rt":2142,"isLearning":true,"correct":true,"stimulus":"<p>What is the person's name?</p><img src=\"https://d3vowlh1lzbs4j.cloudfront.net/face/JWfemale76-3neutral.jpg\"/> <br/> <span style=\"margin-right: 150px;\">1. Debra</span> <span style=\"margin-left: 150px;\">2. Susan</span>","time_elapsed":159674,"isRecall":true,"lure":"Susan","names":["Debra","Susan"],"response":"1","trial_type":"html-keyboard-response","cat":"age 70-94/Female","name":"Debra","trial_index":32,"picId":"JWfemale76-3neutral.jpg","userId":"524d2272-d17f-42aa-b335-772a7ac10972","dateTime":"2021-11-13T22:51:38.543Z","isRelevant":true},{"internal_node_id":"0.0-0.0-7.0-0.13","rt":1855,"isLearning":true,"correct":true,"stimulus":"<p>What is the person's name?</p><img src=\"https://d3vowlh1lzbs4j.cloudfront.net/face/TMBmale30neutral.jpg\"/> <br/> <span style=\"margin-right: 150px;\">1. Joseph</span> <span style=\"margin-left: 150px;\">2. Charles</span>","time_elapsed":161530,"isRecall":true,"lure":"Joseph","names":["Joseph","Charles"],"response":"2","trial_type":"html-keyboard-response","cat":"age 30-49/Male","name":"Charles","trial_index":33,"picId":"TMBmale30neutral.jpg","userId":"524d2272-d17f-42aa-b335-772a7ac10972","dateTime":"2021-11-13T22:51:40.399Z","isRelevant":true},{"internal_node_id":"0.0-0.0-7.0-0.14","rt":5255,"isLearning":true,"correct":true,"stimulus":"<p>What is the person's name?</p><img src=\"https://d3vowlh1lzbs4j.cloudfront.net/face/TSFWmale70neutral.jpg\"/> <br/> <span style=\"margin-right: 150px;\">1. Jonathan</span> <span style=\"margin-left: 150px;\">2. Gary</span>","time_elapsed":166787,"isRecall":true,"lure":"Gary","names":["Jonathan","Gary"],"response":"1","trial_type":"html-keyboard-response","cat":"age 70-94/Male","name":"Jonathan","trial_index":34,"picId":"TSFWmale70neutral.jpg","userId":"524d2272-d17f-42aa-b335-772a7ac10972","dateTime":"2021-11-13T22:51:45.656Z","isRelevant":true},{"internal_node_id":"0.0-0.0-7.0-0.15","rt":2047,"isLearning":true,"correct":true,"stimulus":"<p>What is the person's name?</p><img src=\"https://d3vowlh1lzbs4j.cloudfront.net/face/EMBfemale49neutral.jpg\"/> <br/> <span style=\"margin-right: 150px;\">1. Kimberly</span> <span style=\"margin-left: 150px;\">2. Debra</span>","time_elapsed":168834,"isRecall":true,"lure":"Debra","names":["Kimberly","Debra"],"response":"1","trial_type":"html-keyboard-response","cat":"age 30-49/Female","name":"Kimberly","trial_index":35,"picId":"EMBfemale49neutral.jpg","userId":"524d2272-d17f-42aa-b335-772a7ac10972","dateTime":"2021-11-13T22:51:47.703Z","isRelevant":true},{"ua":"Mozilla/5.0 (Macintosh; Intel Mac OS X 10.15; rv:94.0) Gecko/20100101 Firefox/94.0","userId":"524d2272-d17f-42aa-b335-772a7ac10972","dateTime":"2021-11-13T22:51:47.704Z","isRelevant":false},{"taskStarted":true,"userId":"524d2272-d17f-42aa-b335-772a7ac10972","dateTime":"2021-11-15T16:47:41.739Z","isRelevant":false},{"internal_node_id":"0.0-0.0-1.0","success":true,"trial_type":"preload","failed_images":[],"time_elapsed":351,"trial_index":0,"failed_audio":[],"failed_video":[],"timeout":false,"userId":"524d2272-d17f-42aa-b335-772a7ac10972","dateTime":"2021-11-15T16:47:42.090Z","isRelevant":false},{"internal_node_id":"0.0-0.0-2.0","rt":11345,"response":" ","trial_type":"html-keyboard-response","stimulus":"<h2>Face-Name Recognition Task</h2> <p>You are about to start a new task. In this task, you will see pictures of people along with their names and be asked to remember them for a later memory test. You will see each person twice. You will need to remember them for memory tests today and on subsequent days.</p> <em>Press the space bar to continue</em>","time_elapsed":11697,"trial_index":1,"userId":"524d2272-d17f-42aa-b335-772a7ac10972","dateTime":"2021-11-15T16:47:53.436Z","isRelevant":false},{"internal_node_id":"0.0-0.0-3.0","rt":5415,"response":" ","trial_type":"html-keyboard-response","stimulus":"<p>Now we will begin the actual task. You will see pictures of people along with their names. Please try to remember them for memory tests that will happen later today and on subsequent days.</p> <em>Press the space bar to continue</em>","time_elapsed":17113,"trial_index":2,"userId":"524d2272-d17f-42aa-b335-772a7ac10972","dateTime":"2021-11-15T16:47:58.852Z","isRelevant":false},{"internal_node_id":"0.0-0.0-4.0-0.0","rt":null,"isLearning":true,"response":null,"trial_type":"html-keyboard-response","stimulus":"<p>Read and memorize</p><img src=\"https://d3vowlh1lzbs4j.cloudfront.net/face/EMWfemale18-2neutral.jpg\"/> <br/> Jennifer","cat":"age18-29/Female","time_elapsed":22117,"name":"Jennifer","trial_index":3,"picId":"EMWfemale18-2neutral.jpg","userId":"524d2272-d17f-42aa-b335-772a7ac10972","dateTime":"2021-11-15T16:48:03.856Z","isRelevant":false},{"internal_node_id":"0.0-0.0-4.0-0.1","rt":null,"isLearning":true,"response":null,"trial_type":"html-keyboard-response","stimulus":"<p>Read and memorize</p><img src=\"https://d3vowlh1lzbs4j.cloudfront.net/face/TMBmale21-4neutral.jpg\"/> <br/> Michael","cat":"age18-29/Male","time_elapsed":27119,"name":"Michael","trial_index":4,"picId":"TMBmale21-4neutral.jpg","userId":"524d2272-d17f-42aa-b335-772a7ac10972","dateTime":"2021-11-15T16:48:08.858Z","isRelevant":false},{"internal_node_id":"0.0-0.0-4.0-0.2","rt":null,"isLearning":true,"response":null,"trial_type":"html-keyboard-response","stimulus":"<p>Read and memorize</p><img src=\"https://d3vowlh1lzbs4j.cloudfront.net/face/JWmale38neutral.jpg\"/> <br/> Paul","cat":"age 30-49/Male","time_elapsed":32122,"name":"Paul","trial_index":5,"picId":"JWmale38neutral.jpg","userId":"524d2272-d17f-42aa-b335-772a7ac10972","dateTime":"2021-11-15T16:48:13.861Z","isRelevant":false},{"internal_node_id":"0.0-0.0-4.0-0.3","rt":null,"isLearning":true,"response":null,"trial_type":"html-keyboard-response","stimulus":"<p>Read and memorize</p><img src=\"https://d3vowlh1lzbs4j.cloudfront.net/face/JWfemale86neutral.jpg\"/> <br/> Brenda","cat":"age 70-94/Female","time_elapsed":37126,"name":"Brenda","trial_index":6,"picId":"JWfemale86neutral.jpg","userId":"524d2272-d17f-42aa-b335-772a7ac10972","dateTime":"2021-11-15T16:48:18.865Z","isRelevant":false},{"internal_node_id":"0.0-0.0-4.0-0.4","rt":null,"isLearning":true,"response":null,"trial_type":"html-keyboard-response","stimulus":"<p>Read and memorize</p><img src=\"https://d3vowlh1lzbs4j.cloudfront.net/face/TSFAmale68neutral.jpg\"/> <br/> Edward","cat":"age 50-69/Male","time_elapsed":42131,"name":"Edward","trial_index":7,"picId":"TSFAmale68neutral.jpg","userId":"524d2272-d17f-42aa-b335-772a7ac10972","dateTime":"2021-11-15T16:48:23.870Z","isRelevant":false},{"internal_node_id":"0.0-0.0-4.0-0.5","rt":null,"isLearning":true,"response":null,"trial_type":"html-keyboard-response","stimulus":"<p>Read and memorize</p><img src=\"https://d3vowlh1lzbs4j.cloudfront.net/face/TSFWmale71neutral.jpg\"/> <br/> Dennis","cat":"age 70-94/Male","time_elapsed":47134,"name":"Dennis","trial_index":8,"picId":"TSFWmale71neutral.jpg","userId":"524d2272-d17f-42aa-b335-772a7ac10972","dateTime":"2021-11-15T16:48:28.874Z","isRelevant":false},{"internal_node_id":"0.0-0.0-4.0-0.6","rt":null,"isLearning":true,"response":null,"trial_type":"html-keyboard-response","stimulus":"<p>Read and memorize</p><img src=\"https://d3vowlh1lzbs4j.cloudfront.net/face/EMWfemale45-2neutral.jpg\"/> <br/> Amanda","cat":"age 30-49/Female","time_elapsed":52142,"name":"Amanda","trial_index":9,"picId":"EMWfemale45-2neutral.jpg","userId":"524d2272-d17f-42aa-b335-772a7ac10972","dateTime":"2021-11-15T16:48:33.881Z","isRelevant":false},{"internal_node_id":"0.0-0.0-4.0-0.7","rt":null,"isLearning":true,"response":null,"trial_type":"html-keyboard-response","stimulus":"<p>Read and memorize</p><img src=\"https://d3vowlh1lzbs4j.cloudfront.net/face/TSFBfemale65-2neutral.jpg\"/> <br/> Cynthia","cat":"age 50-69/Female","time_elapsed":57146,"name":"Cynthia","trial_index":10,"picId":"TSFBfemale65-2neutral.jpg","userId":"524d2272-d17f-42aa-b335-772a7ac10972","dateTime":"2021-11-15T16:48:38.885Z","isRelevant":false},{"internal_node_id":"0.0-0.0-5.0-0.0","rt":null,"isLearning":true,"response":null,"trial_type":"html-keyboard-response","stimulus":"<p>Read and memorize</p><img src=\"https://d3vowlh1lzbs4j.cloudfront.net/face/EMWfemale18-2neutral.jpg\"/> <br/> Jennifer","cat":"age18-29/Female","time_elapsed":62150,"name":"Jennifer","trial_index":11,"picId":"EMWfemale18-2neutral.jpg","userId":"524d2272-d17f-42aa-b335-772a7ac10972","dateTime":"2021-11-15T16:48:43.889Z","isRelevant":false},{"internal_node_id":"0.0-0.0-5.0-0.1","rt":null,"isLearning":true,"response":null,"trial_type":"html-keyboard-response","stimulus":"<p>Read and memorize</p><img src=\"https://d3vowlh1lzbs4j.cloudfront.net/face/TMBmale21-4neutral.jpg\"/> <br/> Michael","cat":"age18-29/Male","time_elapsed":67154,"name":"Michael","trial_index":12,"picId":"TMBmale21-4neutral.jpg","userId":"524d2272-d17f-42aa-b335-772a7ac10972","dateTime":"2021-11-15T16:48:48.893Z","isRelevant":false},{"internal_node_id":"0.0-0.0-5.0-0.2","rt":null,"isLearning":true,"response":null,"trial_type":"html-keyboard-response","stimulus":"<p>Read and memorize</p><img src=\"https://d3vowlh1lzbs4j.cloudfront.net/face/JWmale38neutral.jpg\"/> <br/> Paul","cat":"age 30-49/Male","time_elapsed":72160,"name":"Paul","trial_index":13,"picId":"JWmale38neutral.jpg","userId":"524d2272-d17f-42aa-b335-772a7ac10972","dateTime":"2021-11-15T16:48:53.899Z","isRelevant":false},{"internal_node_id":"0.0-0.0-5.0-0.3","rt":null,"isLearning":true,"response":null,"trial_type":"html-keyboard-response","stimulus":"<p>Read and memorize</p><img src=\"https://d3vowlh1lzbs4j.cloudfront.net/face/JWfemale86neutral.jpg\"/> <br/> Brenda","cat":"age 70-94/Female","time_elapsed":77162,"name":"Brenda","trial_index":14,"picId":"JWfemale86neutral.jpg","userId":"524d2272-d17f-42aa-b335-772a7ac10972","dateTime":"2021-11-15T16:48:58.901Z","isRelevant":false},{"internal_node_id":"0.0-0.0-5.0-0.4","rt":null,"isLearning":true,"response":null,"trial_type":"html-keyboard-response","stimulus":"<p>Read and memorize</p><img src=\"https://d3vowlh1lzbs4j.cloudfront.net/face/TSFAmale68neutral.jpg\"/> <br/> Edward","cat":"age 50-69/Male","time_elapsed":82166,"name":"Edward","trial_index":15,"picId":"TSFAmale68neutral.jpg","userId":"524d2272-d17f-42aa-b335-772a7ac10972","dateTime":"2021-11-15T16:49:03.905Z","isRelevant":false},{"internal_node_id":"0.0-0.0-5.0-0.5","rt":null,"isLearning":true,"response":null,"trial_type":"html-keyboard-response","stimulus":"<p>Read and memorize</p><img src=\"https://d3vowlh1lzbs4j.cloudfront.net/face/TSFWmale71neutral.jpg\"/> <br/> Dennis","cat":"age 70-94/Male","time_elapsed":87169,"name":"Dennis","trial_index":16,"picId":"TSFWmale71neutral.jpg","userId":"524d2272-d17f-42aa-b335-772a7ac10972","dateTime":"2021-11-15T16:49:08.908Z","isRelevant":false},{"internal_node_id":"0.0-0.0-5.0-0.6","rt":null,"isLearning":true,"response":null,"trial_type":"html-keyboard-response","stimulus":"<p>Read and memorize</p><img src=\"https://d3vowlh1lzbs4j.cloudfront.net/face/EMWfemale45-2neutral.jpg\"/> <br/> Amanda","cat":"age 30-49/Female","time_elapsed":92174,"name":"Amanda","trial_index":17,"picId":"EMWfemale45-2neutral.jpg","userId":"524d2272-d17f-42aa-b335-772a7ac10972","dateTime":"2021-11-15T16:49:13.913Z","isRelevant":false},{"internal_node_id":"0.0-0.0-5.0-0.7","rt":null,"isLearning":true,"response":null,"trial_type":"html-keyboard-response","stimulus":"<p>Read and memorize</p><img src=\"https://d3vowlh1lzbs4j.cloudfront.net/face/TSFBfemale65-2neutral.jpg\"/> <br/> Cynthia","cat":"age 50-69/Female","time_elapsed":97178,"name":"Cynthia","trial_index":18,"picId":"TSFBfemale65-2neutral.jpg","userId":"524d2272-d17f-42aa-b335-772a7ac10972","dateTime":"2021-11-15T16:49:18.917Z","isRelevant":false},{"internal_node_id":"0.0-0.0-6.0","rt":1232,"response":" ","trial_type":"html-keyboard-response","stimulus":"<h2>Memory test</h2> <p>Now you will be tested on your memory. You will see the people and names you just learned today as well as those you learned in the last session. Please select option 1 or 2 to indicate the name of the person.</p> <em>Press the space bar to continue</em>","time_elapsed":98411,"trial_index":19,"userId":"524d2272-d17f-42aa-b335-772a7ac10972","dateTime":"2021-11-15T16:49:20.150Z","isRelevant":false},{"internal_node_id":"0.0-0.0-7.0-0.0","rt":2654,"isLearning":true,"correct":true,"stimulus":"<p>What is the person's name?</p><img src=\"https://d3vowlh1lzbs4j.cloudfront.net/face/TSFAmale68neutral.jpg\"/> <br/> <span style=\"margin-right: 150px;\">1. Dennis</span> <span style=\"margin-left: 150px;\">2. Edward</span>","time_elapsed":101067,"isRecall":true,"lure":"Dennis","names":["Dennis","Edward"],"response":"2","trial_type":"html-keyboard-response","cat":"age 50-69/Male","name":"Edward","trial_index":20,"picId":"TSFAmale68neutral.jpg","userId":"524d2272-d17f-42aa-b335-772a7ac10972","dateTime":"2021-11-15T16:49:22.807Z","isRelevant":true},{"internal_node_id":"0.0-0.0-7.0-0.1","rt":8310,"isLearning":true,"correct":true,"stimulus":"<p>What is the person's name?</p><img src=\"https://d3vowlh1lzbs4j.cloudfront.net/face/TSFWmale87neutral.jpg\"/> <br/> <span style=\"margin-right: 150px;\">1. Gregory</span> <span style=\"margin-left: 150px;\">2. Raymond</span>","time_elapsed":109379,"isRecall":true,"lure":"Gregory","names":["Gregory","Raymond"],"response":"2","trial_type":"html-keyboard-response","cat":"age 70-94/Male","name":"Raymond","trial_index":21,"picId":"TSFWmale87neutral.jpg","userId":"524d2272-d17f-42aa-b335-772a7ac10972","dateTime":"2021-11-15T16:49:31.119Z","isRelevant":true},{"internal_node_id":"0.0-0.0-7.0-0.2","rt":5150,"isLearning":true,"correct":true,"stimulus":"<p>What is the person's name?</p><img src=\"https://d3vowlh1lzbs4j.cloudfront.net/face/EMWfemale18-2neutral.jpg\"/> <br/> <span style=\"margin-right: 150px;\">1. Susan</span> <span style=\"margin-left: 150px;\">2. Christine</span>","time_elapsed":114531,"isRecall":true,"lure":"Christine","names":["Susan","Christine"],"response":"1","trial_type":"html-keyboard-response","cat":"age18-29/Female","name":"Susan","trial_index":22,"picId":"EMWfemale18-2neutral.jpg","userId":"524d2272-d17f-42aa-b335-772a7ac10972","dateTime":"2021-11-15T16:49:36.270Z","isRelevant":true},{"internal_node_id":"0.0-0.0-7.0-0.3","rt":5039,"isLearning":true,"correct":true,"stimulus":"<p>What is the person's name?</p><img src=\"https://d3vowlh1lzbs4j.cloudfront.net/face/JWfemale76-3neutral.jpg\"/> <br/> <span style=\"margin-right: 150px;\">1. Debra</span> <span style=\"margin-left: 150px;\">2. Susan</span>","time_elapsed":119572,"isRecall":true,"lure":"Susan","names":["Debra","Susan"],"response":"1","trial_type":"html-keyboard-response","cat":"age 70-94/Female","name":"Debra","trial_index":23,"picId":"JWfemale76-3neutral.jpg","userId":"524d2272-d17f-42aa-b335-772a7ac10972","dateTime":"2021-11-15T16:49:41.311Z","isRelevant":true},{"internal_node_id":"0.0-0.0-7.0-0.4","rt":2774,"isLearning":true,"correct":true,"stimulus":"<p>What is the person's name?</p><img src=\"https://d3vowlh1lzbs4j.cloudfront.net/face/EMWfemale18-2neutral.jpg\"/> <br/> <span style=\"margin-right: 150px;\">1. Cynthia</span> <span style=\"margin-left: 150px;\">2. Jennifer</span>","time_elapsed":122348,"isRecall":true,"lure":"Cynthia","names":["Cynthia","Jennifer"],"response":"2","trial_type":"html-keyboard-response","cat":"age18-29/Female","name":"Jennifer","trial_index":24,"picId":"EMWfemale18-2neutral.jpg","userId":"524d2272-d17f-42aa-b335-772a7ac10972","dateTime":"2021-11-15T16:49:44.087Z","isRelevant":true},{"internal_node_id":"0.0-0.0-7.0-0.5","rt":2294,"isLearning":true,"correct":true,"stimulus":"<p>What is the person's name?</p><img src=\"https://d3vowlh1lzbs4j.cloudfront.net/face/TSFBfemale61neutral.jpg\"/> <br/> <span style=\"margin-right: 150px;\">1. Christine</span> <span style=\"margin-left: 150px;\">2. Kimberly</span>","time_elapsed":124644,"isRecall":true,"lure":"Kimberly","names":["Christine","Kimberly"],"response":"1","trial_type":"html-keyboard-response","cat":"age 50-69/Female","name":"Christine","trial_index":25,"picId":"TSFBfemale61neutral.jpg","userId":"524d2272-d17f-42aa-b335-772a7ac10972","dateTime":"2021-11-15T16:49:46.383Z","isRelevant":true},{"internal_node_id":"0.0-0.0-7.0-0.6","rt":1320,"isLearning":true,"correct":true,"stimulus":"<p>What is the person's name?</p><img src=\"https://d3vowlh1lzbs4j.cloudfront.net/face/JWmale38neutral.jpg\"/> <br/> <span style=\"margin-right: 150px;\">1. Paul</span> <span style=\"margin-left: 150px;\">2. Michael</span>","time_elapsed":125964,"isRecall":true,"lure":"Michael","names":["Paul","Michael"],"response":"1","trial_type":"html-keyboard-response","cat":"age 30-49/Male","name":"Paul","trial_index":26,"picId":"JWmale38neutral.jpg","userId":"524d2272-d17f-42aa-b335-772a7ac10972","dateTime":"2021-11-15T16:49:47.703Z","isRelevant":true},{"internal_node_id":"0.0-0.0-7.0-0.7","rt":6111,"isLearning":true,"correct":false,"stimulus":"<p>What is the person's name?</p><img src=\"https://d3vowlh1lzbs4j.cloudfront.net/face/JWmale69-2neutral.jpg\"/> <br/> <span style=\"margin-right: 150px;\">1. Anthony</span> <span style=\"margin-left: 150px;\">2. Gregory</span>","time_elapsed":132076,"isRecall":true,"lure":"Anthony","names":["Anthony","Gregory"],"response":"1","trial_type":"html-keyboard-response","cat":"age 50-69/Male","name":"Gregory","trial_index":27,"picId":"JWmale69-2neutral.jpg","userId":"524d2272-d17f-42aa-b335-772a7ac10972","dateTime":"2021-11-15T16:49:53.815Z","isRelevant":true},{"internal_node_id":"0.0-0.0-7.0-0.8","rt":1990,"isLearning":true,"correct":true,"stimulus":"<p>What is the person's name?</p><img src=\"https://d3vowlh1lzbs4j.cloudfront.net/face/TSFWmale71neutral.jpg\"/> <br/> <span style=\"margin-right: 150px;\">1. Paul</span> <span style=\"margin-left: 150px;\">2. Dennis</span>","time_elapsed":134069,"isRecall":true,"lure":"Paul","names":["Paul","Dennis"],"response":"2","trial_type":"html-keyboard-response","cat":"age 70-94/Male","name":"Dennis","trial_index":28,"picId":"TSFWmale71neutral.jpg","userId":"524d2272-d17f-42aa-b335-772a7ac10972","dateTime":"2021-11-15T16:49:55.808Z","isRelevant":true},{"internal_node_id":"0.0-0.0-7.0-0.9","rt":2911,"isLearning":true,"correct":true,"stimulus":"<p>What is the person's name?</p><img src=\"https://d3vowlh1lzbs4j.cloudfront.net/face/EMBfemale49neutral.jpg\"/> <br/> <span style=\"margin-right: 150px;\">1. Kimberly</span> <span style=\"margin-left: 150px;\">2. Debra</span>","time_elapsed":136980,"isRecall":true,"lure":"Debra","names":["Kimberly","Debra"],"response":"1","trial_type":"html-keyboard-response","cat":"age 30-49/Female","name":"Kimberly","trial_index":29,"picId":"EMBfemale49neutral.jpg","userId":"524d2272-d17f-42aa-b335-772a7ac10972","dateTime":"2021-11-15T16:49:58.719Z","isRelevant":true},{"internal_node_id":"0.0-0.0-7.0-0.10","rt":1822,"isLearning":true,"correct":true,"stimulus":"<p>What is the person's name?</p><img src=\"https://d3vowlh1lzbs4j.cloudfront.net/face/TSFBfemale65-2neutral.jpg\"/> <br/> <span style=\"margin-right: 150px;\">1. Cynthia</span> <span style=\"margin-left: 150px;\">2. Brenda</span>","time_elapsed":138805,"isRecall":true,"lure":"Brenda","names":["Cynthia","Brenda"],"response":"1","trial_type":"html-keyboard-response","cat":"age 50-69/Female","name":"Cynthia","trial_index":30,"picId":"TSFBfemale65-2neutral.jpg","userId":"524d2272-d17f-42aa-b335-772a7ac10972","dateTime":"2021-11-15T16:50:00.544Z","isRelevant":true},{"internal_node_id":"0.0-0.0-7.0-0.11","rt":2534,"isLearning":true,"correct":true,"stimulus":"<p>What is the person's name?</p><img src=\"https://d3vowlh1lzbs4j.cloudfront.net/face/JWfemale86neutral.jpg\"/> <br/> <span style=\"margin-right: 150px;\">1. Brenda</span> <span style=\"margin-left: 150px;\">2. Amanda</span>","time_elapsed":141341,"isRecall":true,"lure":"Amanda","names":["Brenda","Amanda"],"response":"1","trial_type":"html-keyboard-response","cat":"age 70-94/Female","name":"Brenda","trial_index":31,"picId":"JWfemale86neutral.jpg","userId":"524d2272-d17f-42aa-b335-772a7ac10972","dateTime":"2021-11-15T16:50:03.080Z","isRelevant":true},{"internal_node_id":"0.0-0.0-7.0-0.12","rt":3999,"isLearning":true,"correct":true,"stimulus":"<p>What is the person's name?</p><img src=\"https://d3vowlh1lzbs4j.cloudfront.net/face/EMWmale40neutral.jpg\"/> <br/> <span style=\"margin-right: 150px;\">1. Anthony</span> <span style=\"margin-left: 150px;\">2. Daniel</span>","time_elapsed":145340,"