[{"taskStarted":true,"userId":"524d2272-d17f-42aa-b335-772a7ac10972","dateTime":"2021-11-13T22:22:27.632Z","isRelevant":false},{"internal_node_id":"0.0-0.0-1.0","rt":254776,"question_order":[0,1,2,3,4,5,6,7,8,9,10,11,12,13,14],"response":{"I think some of my emotions are bad or inappropriate and I shouldn’t feel them.":0,"I find myself doing things without paying attention.":2,"When I take a shower or a bath, I stay alert to the sensations of water on my body.":2,"I have trouble thinking of the right words to express how I feel about things.":1,"I tell myself I shouldn’t be feeling the way I’m feeling.":0,"When I have distressing thoughts or images I just notice them and let them go.":3,"When I have distressing thoughts or images I am able just to notice them without reacting.":3,"I pay attention to sensations, such as the wind in my hair or the sun on my face.":1,"I don’t pay attention to what I’m doing because I’m daydreaming, worrying, or otherwise distracted.":2,"I do jobs or tasks automatically without being aware of what I’m doing.":2,"I’m good at finding words to describe my feelings.":2,"When I have distressing thoughts or images, I “step back” and am aware of the thought or image without getting taken over by it.":3,"I notice how foods and drinks affect my thoughts, bodily sensations, and emotions.":1,"Even when I’m feeling terribly upset I can find a way to put it into words.":3,"I believe some of my thoughts are abnormal or bad and I shouldn’t think that way.":0},"trial_type":"survey-likert","time_elapsed":254787,"trial_index":0,"userId":"524d2272-d17f-42aa-b335-772a7ac10972","dateTime":"2021-11-13T22:26:42.419Z","isRelevant":true},{"ua":"Mozilla/5.0 (Macintosh; Intel Mac OS X 10.15; rv:94.0) Gecko/20100101 Firefox/94.0","userId":"524d2272-d17f-42aa-b335-772a7ac10972","dateTime":"2021-11-13T22:26:42.427Z","isRelevant":false},{"taskStarted":true,"userId":"b07d920b-a11a-422a-a359-694608c3cd00","dateTime":"2021-11-20T00:34:14.281Z","isRelevant":false},{"internal_node_id":"0.0-0.0-1.0","rt":210455.5,"question_order":[0,1,2,3,4,5,6,7,8,9,10,11,12,13,14],"response":{"I think some of my emotions are bad or inappropriate and I shouldn’t feel them.":1,"I find myself doing things without paying attention.":1,"When I take a shower or a bath, I stay alert to the sensations of water on my body.":2,"I have trouble thinking of the right words to express how I feel about things.":1,"I tell myself I shouldn’t be feeling the way I’m feeling.":1,"When I have distressing thoughts or images I just notice them and let them go.":2,"When I have distressing thoughts or images I am able just to notice them without reacting.":3,"I pay attention to sensations, such as the wind in my hair or the sun on my face.":2,"I don’t pay attention to what I’m doing because I’m daydreaming, worrying, or otherwise distracted.":1,"I do jobs or tasks automatically without being aware of what I’m doing.":1,"I’m good at finding words to describe my feelings.":3,"When I have distressing thoughts or images, I “step back” and am aware of the thought or image without getting taken over by it.":2,"I notice how foods and drinks affect my thoughts, bodily sensations, and emotions.":3,"Even when I’m feeling terribly upset I can find a way to put it into words.":2,"I believe some of my thoughts are abnormal or bad and I shouldn’t think that way.":0},"trial_type":"survey-likert","time_elapsed":210584,"trial_index":0,"userId":"b07d920b-a11a-422a-a359-694608c3cd00","dateTime":"2021-11-20T00:37:44.865Z","isRelevant":true},{"ua":"Mozilla/5.0 (Macintosh; Intel Mac OS X 10_15_7) AppleWebKit/537.36 (KHTML, like Gecko) Chrome/95.0.4638.54 Safari/537.36","userId":"b07d920b-a11a-422a-a359-694608c3cd00","dateTime":"2021-11-20T00:37:44.870Z","isRelevant":false},{"taskStarted":true,"userId":"b07d920b-a11a-422a-a359-694608c3cd00","dateTime":"2021-11-20T22:34:09.865Z","isRelevant":false},{"internal_node_id":"0.0-0.0-1.0","rt":107715.09999990463,"question_order":[0,1,2,3,4,5,6,7,8,9,10,11,12,13,14],"response":{"I think some of my emotions are bad or inappropriate and I shouldn’t feel them.":1,"I find myself doing things without paying attention.":2,"When I take a shower or a bath, I stay alert to the sensations of water on my body.":2,"I have trouble thinking of the right words to express how I feel about things.":1,"I tell myself I shouldn’t be feeling the way I’m feeling.":1,"When I have distressing thoughts or images I just notice them and let them go.":1,"When I have distressing thoughts or images I am able just to notice them without reacting.":1,"I pay attention to sensations, such as the wind in my hair or the sun on my face.":1,"I don’t pay attention to what I’m doing because I’m daydreaming, worrying, or otherwise distracted.":2,"I do jobs or tasks automatically without being aware of what I’m doing.":1,"I’m good at finding words to describe my feelings.":3,"When I have distressing thoughts or images, I “step back” and am aware of the thought or image without getting taken over by it.":1,"I notice how foods and drinks affect my thoughts, bodily sensations, and emotions.":2,"Even when I’m feeling terribly upset I can find a way to put it into words.":1,"I believe some of my thoughts are abnormal or bad and I shouldn’t think that way.":0},"trial_type":"survey-likert","time_elapsed":107711,"trial_index":0,"userId":"b07d920b-a11a-422a-a359-694608c3cd00","dateTime":"2021-11-20T22:35:57.576Z","isRelevant":true},{"ua":"Mozilla/5.0 (Macintosh; Intel Mac OS X 10_15_7) AppleWebKit/537.36 (KHTML, like Gecko) Chrome/95.0.4638.54 Safari/537.36","userId":"b07d920b-a11a-422a-a359-694608c3cd00","dateTime":"2021-11-20T22:35:57.579Z","isRelevant":false},{"taskStarted":true,"userId":"1e7afe8d-bc84-463f-bd6e-c9bd987464be","dateTime":"2021-11-18T15:53:10.127Z","isRelevant":false},{"internal_node_id":"0.0-0.0-1.0","rt":100903,"question_order":[0,1,2,3,4,5,6,7,8,9,10,11,12,13,14],"response":{"I think some of my emotions are bad or inappropriate and I shouldn’t feel them.":2,"I find myself doing things without paying attention.":2,"When I take a shower or a bath, I stay alert to the sensations of water on my body.":2,"I have trouble thinking of the right words to express how I feel about things.":1,"I tell myself I shouldn’t be feeling the way I’m feeling.":2,"When I have distressing thoughts or images I just notice them and let them go.":2,"When I have distressing thoughts or images I am able just to notice them without reacting.":2,"I pay attention to sensations, such as the wind in my hair or the sun on my face.":2,"I don’t pay attention to what I’m doing because I’m daydreaming, worrying, or otherwise distracted.":3,"I do jobs or tasks automatically without being aware of what I’m doing.":2,"I’m good at finding words to describe my feelings.":2,"When I have distressing thoughts or images, I “step back” and am aware of the thought or image without getting taken over by it.":2,"I notice how foods and drinks affect my thoughts, bodily sensations, and emotions.":1,"Even when I’m feeling terribly upset I can find a way to put it into words.":2,"I believe some of my thoughts are abnormal or bad and I shouldn’t think that way.":2},"trial_type":"survey-likert","time_elapsed":100909,"trial_index":0,"userId":"1e7afe8d-bc84-463f-bd6e-c9bd987464be","dateTime":"2021-11-18T15:54:51.036Z","isRelevant":true},{"ua":"Mozilla/5.0 (Windows NT 10.0; Win64; x64; rv:91.0) Gecko/20100101 Firefox/91.0","userId":"1e7afe8d-bc84-463f-bd6e-c9bd987464be","dateTime":"2021-11-18T15:54:51.043Z","isRelevant":false},{"taskStarted":true,"userId":"165fd106-8a5c-4705-8441-3beaa87dbda4","dateTime":"2021-11-18T00:34:08.456Z","isRelevant":false},{"internal_node_id":"0.0-0.0-1.0","rt":96753,"question_order":[0,1,2,3,4,5,6,7,8,9,10,11,12,13,14],"response":{"I think some of my emotions are bad or inappropriate and I shouldn’t feel them.":2,"I find myself doing things without paying attention.":2,"When I take a shower or a bath, I stay alert to the sensations of water on my body.":2,"I have trouble thinking of the right words to express how I feel about things.":2,"I tell myself I shouldn’t be feeling the way I’m feeling.":3,"When I have distressing thoughts or images I just notice them and let them go.":1,"When I have distressing thoughts or images I am able just to notice them without reacting.":1,"I pay attention to sensations, such as the wind in my hair or the sun on my face.":3,"I don’t pay attention to what I’m doing because I’m daydreaming, worrying, or otherwise distracted.":2,"I do jobs or tasks automatically without being aware of what I’m doing.":2,"I’m good at finding words to describe my feelings.":2,"When I have distressing thoughts or images, I “step back” and am aware of the thought or image without getting taken over by it.":2,"I notice how foods and drinks affect my thoughts, bodily sensations, and emotions.":4,"Even when I’m feeling terribly upset I can find a way to put it into words.":2,"I believe some of my thoughts are abnormal or bad and I shouldn’t think that way.":2},"trial_type":"survey-likert","time_elapsed":96759,"trial_index":0,"userId":"165fd106-8a5c-4705-8441-3beaa87dbda4","dateTime":"2021-11-18T00:35:45.216Z","isRelevant":true},{"ua":"Mozilla/5.0 (Macintosh; Intel Mac OS X 10_15_7) AppleWebKit/605.1.15 (KHTML, like Gecko) Version/15.0 Safari/605.1.15","userId":"165fd106-8a5c-4705-8441-3beaa87dbda4","dateTime":"2021-11-18T00:35:45.219Z","isRelevant":false},{"taskStarted":true,"userId":"a39c0907-29e6-4c85-9188-b21b04ca17a6","dateTime":"2021-11-07T22:30:56.074Z","isRelevant":false},{"internal_node_id":"0.0-0.0-1.0","rt":131836.19999980927,"question_order":[0,1,2,3,4,5,6,7,8,9,10,11,12,13,14],"response":{"I think some of my emotions are bad or inappropriate and I shouldn’t feel them.":1,"I find myself doing things without paying attention.":4,"When I take a shower or a bath, I stay alert to the sensations of water on my body.":4,"I have trouble thinking of the right words to express how I feel about things.":2,"I tell myself I shouldn’t be feeling the way I’m feeling.":1,"When I have distressing thoughts or images I just notice them and let them go.":4,"When I have distressing thoughts or images I am able just to notice them without reacting.":4,"I pay attention to sensations, such as the wind in my hair or the sun on my face.":3,"I don’t pay attention to what I’m doing because I’m daydreaming, worrying, or otherwise distracted.":0,"I do jobs or tasks automatically without being aware of what I’m doing.":2,"I’m good at finding words to describe my feelings.":2,"When I have distressing thoughts or images, I “step back” and am aware of the thought or image without getting taken over by it.":4,"I notice how foods and drinks affect my thoughts, bodily sensations, and emotions.":4,"Even when I’m feeling terribly upset I can find a way to put it into words.":4,"I believe some of my thoughts are abnormal or bad and I shouldn’t think that way.":2},"trial_type":"survey-likert","time_elapsed":131845,"trial_index":0,"userId":"a39c0907-29e6-4c85-9188-b21b04ca17a6","dateTime":"2021-11-07T22:33:07.918Z","isRelevant":true},{"ua":"Mozilla/5.0 (Macintosh; Intel Mac OS X 10_15_7) AppleWebKit/537.36 (KHTML, like Gecko) Chrome/95.0.4638.69 Safari/537.36","userId":"a39c0907-29e6-4c85-9188-b21b04ca17a6","dateTime":"2021-11-07T22:33:07.921Z","isRelevant":false},{"taskStarted":true,"userId":"792390ab-56ba-47a8-8c3c-1ea452762f1c","dateTime":"2021-11-13T17:12:27.831Z","isRelevant":false},{"internal_node_id":"0.0-0.0-1.0","rt":106922.39999997616,"question_order":[0,1,2,3,4,5,6,7,8,9,10,11,12,13,14],"response":{"I think some of my emotions are bad or inappropriate and I shouldn’t feel them.":0,"I find myself doing things without paying attention.":0,"When I take a shower or a bath, I stay alert to the sensations of water on my body.":4,"I have trouble thinking of the right words to express how I feel about things.":2,"I tell myself I shouldn’t be feeling the way I’m feeling.":2,"When I have distressing thoughts or images I just notice them and let them go.":2,"When I have distressing thoughts or images I am able just to notice them without reacting.":4,"I pay attention to sensations, such as the wind in my hair or the sun on my face.":4,"I don’t pay attention to what I’m doing because I’m daydreaming, worrying, or otherwise distracted.":0,"I do jobs or tasks automatically without being aware of what I’m doing.":0,"I’m good at finding words to describe my feelings.":2,"When I have distressing thoughts or images, I “step back” and am aware of the thought or image without getting taken over by it.":4,"I notice how foods and drinks affect my thoughts, bodily sensations, and emotions.":4,"Even when I’m feeling terribly upset I can find a way to put it into words.":2,"I believe some of my thoughts are abnormal or bad and I shouldn’t think that way.":0},"trial_type":"survey-likert","time_elapsed":106931,"trial_index":0,"userId":"792390ab-56ba-47a8-8c3c-1ea452762f1c","dateTime":"2021-11-13T17:14:14.762Z","isRelevant":true},{"ua":"Mozilla/5.0 (Windows NT 10.0; Win64; x64) AppleWebKit/537.36 (KHTML, like Gecko) Chrome/95.0.4638.69 Safari/537.36 Edg/95.0.1020.44","userId":"792390ab-56ba-47a8-8c3c-1ea452762f1c","dateTime":"2021-11-13T17:14:14.771Z","isRelevant":false},{"taskStarted":true,"userId":"ed732f11-6a56-4990-9a8d-9465c81770fb","dateTime":"2021-11-15T20:29:06.591Z","isRelevant":false},{"trial_index":0,"internal_node_id":"0.0-0.0-0.0-0.0","success":true,"trial_type":"fullscreen","time_elapsed":1458,"userId":"ed732f11-6a56-4990-9a8d-9465c81770fb","dateTime":"2021-11-15T20:29:08.049Z","isRelevant":false},{"taskStarted":true,"userId":"ed732f11-6a56-4990-9a8d-9465c81770fb","dateTime":"2021-11-15T22:12:35.489Z","isRelevant":false},{"taskStarted":true,"userId":"ed732f11-6a56-4990-9a8d-9465c81770fb","dateTime":"2021-11-15T22:15:31.344Z","isRelevant":false},{"taskStarted":true,"userId":"ed732f11-6a56-4990-9a8d-9465c81770fb","dateTime":"2021-11-15T22:36:58.825Z","isRelevant":false},{"taskStarted":true,"userId":"ed732f11-6a56-4990-9a8d-9465c81770fb","dateTime":"2021-11-15T22:40:52.976Z","isRelevant":false},{"taskStarted":true,"userId":"ed732f11-6a56-4990-9a8d-9465c81770fb","dateTime":"2021-11-15T22:42:48.942Z","isRelevant":false},{"taskStarted":true,"userId":"ed732f11-6a56-4990-9a8d-9465c81770fb","dateTime":"2021-11-15T22:47:30.633Z","isRelevant":false},{"taskStarted":true,"userId":"ed732f11-6a56-4990-9a8d-9465c81770fb","dateTime":"2021-11-15T22:51:38.261Z","isRelevant":false},{"taskStarted":true,"userId":"ed732f11-6a56-4990-9a8d-9465c81770fb","dateTime":"2021-11-15T22:55:54.759Z","isRelevant":false},{"taskStarted":true,"userId":"ed732f11-6a56-4990-9a8d-9465c81770fb","dateTime":"2021-11-15T23:17:33.690Z","isRelevant":false},{"taskStarted":true,"userId":"ed732f11-6a56-4990-9a8d-9465c81770fb","dateTime":"2021-11-16T00:01:01.207Z","isRelevant":false},{"taskStarted":true,"userId":"ed732f11-6a56-4990-9a8d-9465c81770fb","dateTime":"2021-11-16T20:21:28.500Z","isRelevant":false},{"internal_node_id":"0.0-0.0-0.0-0.0","success":true,"trial_type":"fullscreen","failed_images":[],"time_elapsed":25,"trial_index":0,"failed_audio":[],"failed_video":[],"timeout":false,"userId":"ed732f11-6a56-4990-9a8d-9465c81770fb","dateTime":"2021-11-16T20:21:28.526Z","isRelevant":false},{"taskStarted":true,"userId":"ed732f11-6a56-4990-9a8d-9465c81770fb","dateTime":"2021-11-17T16:25:10.598Z","isRelevant":false},{"taskStarted":true,"userId":"6079389f-5d71-4087-9a91-f7e150dec265","dateTime":"2021-11-15T05:09:50.234Z","isRelevant":false},{"internal_node_id":"0.0-0.0-1.0","rt":77797.10000002384,"question_order":[0,1,2,3,4,5,6,7,8,9,10,11,12,13,14],"response":{"I think some of my emotions are bad or inappropriate and I shouldn’t feel them.":1,"I find myself doing things without paying attention.":2,"When I take a shower or a bath, I stay alert to the sensations of water on my body.":1,"I have trouble thinking of the right words to express how I feel about things.":2,"I tell myself I shouldn’t be feeling the way I’m feeling.":2,"When I have distressing thoughts or images I just notice them and let them go.":2,"When I have distressing thoughts or images I am able just to notice them without reacting.":2,"I pay attention to sensations, such as the wind in my hair or the sun on my face.":2,"I don’t pay attention to what I’m doing because I’m daydreaming, worrying, or otherwise distracted.":2,"I do jobs or tasks automatically without being aware of what I’m doing.":2,"I’m good at finding words to describe my feelings.":2,"When I have distressing thoughts or images, I “step back” and am aware of the thought or image without getting taken over by it.":2,"I notice how foods and drinks affect my thoughts, bodily sensations, and emotions.":2,"Even when I’m feeling terribly upset I can find a way to put it into words.":2,"I believe some of my thoughts are abnormal or bad and I shouldn’t think that way.":0},"trial_type":"survey-likert","time_elapsed":77803,"trial_index":0,"userId":"6079389f-5d71-4087-9a91-f7e150dec265","dateTime":"2021-11-15T05:11:08.037Z","isRelevant":true},{"ua":"Mozilla/5.0 (Windows NT 10.0; Win64; x64) AppleWebKit/537.36 (KHTML, like Gecko) Chrome/95.0.4638.69 Safari/537.36","userId":"6079389f-5d71-4087-9a91-f7e150dec265","dateTime":"2021-11-15T05:11:08.040Z","isRelevant":false},{"taskStarted":true,"userId":"0d940b94-1baf-43bf-a981-857ddf728e29","dateTime":"2021-11-14T15:09:45.967Z","isRelevant":false},{"internal_node_id":"0.0-0.0-1.0","rt":141073,"question_order":[0,1,2,3,4,5,6,7,8,9,10,11,12,13,14],"response":{"I think some of my emotions are bad or inappropriate and I shouldn’t feel them.":1,"I find myself doing things without paying attention.":1,"When I take a shower or a bath, I stay alert to the sensations of water on my body.":1,"I have trouble thinking of the right words to express how I feel about things.":1,"I tell myself I shouldn’t be feeling the way I’m feeling.":2,"When I have distressing thoughts or images I just notice them and let them go.":2,"When I have distressing thoughts or images I am able just to notice them without reacting.":2,"I pay attention to sensations, such as the wind in my hair or the sun on my face.":3,"I don’t pay attention to what I’m doing because I’m daydreaming, worrying, or otherwise distracted.":2,"I do jobs or tasks automatically without being aware of what I’m doing.":1,"I’m good at finding words to describe my feelings.":2,"When I have distressing thoughts or images, I “step back” and am aware of the thought or image without getting taken over by it.":2,"I notice how foods and drinks affect my thoughts, bodily sensations, and emotions.":4,"Even when I’m feeling terribly upset I can find a way to put it into words.":4,"I believe some of my thoughts are abnormal or bad and I shouldn’t think that way.":1},"trial_type":"survey-likert","time_elapsed":141078,"trial_index":0,"userId":"0d940b94-1baf-43bf-a981-857ddf728e29","dateTime":"2021-11-14T15:12:07.045Z","isRelevant":true},{"ua":"Mozilla/5.0 (Macintosh; Intel Mac OS X 10.15; rv:94.0) Gecko/20100101 Firefox/94.0","userId":"0d940b94-1baf-43bf-a981-857ddf728e29","dateTime":"2021-11-14T15:12:07.058Z","isRelevant":false},{"taskStarted":true,"userId":"0498cbe0-60ab-45be-984d-ded9dbcdc27d","dateTime":"2021-11-08T20:51:33.524Z","isRelevant":false},{"internal_node_id":"0.0-0.0-1.0","rt":68053.80000001192,"question_order":[0,1,2,3,4,5,6,7,8,9,10,11,12,13,14],"response":{"I think some of my emotions are bad or inappropriate and I shouldn’t feel them.":2,"I find myself doing things without paying attention.":2,"When I take a shower or a bath, I stay alert to the sensations of water on my body.":1,"I have trouble thinking of the right words to express how I feel about things.":3,"I tell myself I shouldn’t be feeling the way I’m feeling.":2,"When I have distressing thoughts or images I just notice them and let them go.":2,"When I have distressing thoughts or images I am able just to notice them without reacting.":3,"I pay attention to sensations, such as the wind in my hair or the sun on my face.":1,"I don’t pay attention to what I’m doing because I’m daydreaming, worrying, or otherwise distracted.":2,"I do jobs or tasks automatically without being aware of what I’m doing.":2,"I’m good at finding words to describe my feelings.":1,"When I have distressing thoughts or images, I “step back” and am aware of the thought or image without getting taken over by it.":3,"I notice how foods and drinks affect my thoughts, bodily sensations, and emotions.":2,"Even when I’m feeling terribly upset I can find a way to put it into words.":2,"I believe some of my thoughts are abnormal or bad and I shouldn’t think that way.":2},"trial_type":"survey-likert","time_elapsed":68057,"trial_index":0,"userId":"0498cbe0-60ab-45be-984d-ded9dbcdc27d","dateTime":"2021-11-08T20:52:41.581Z","isRelevant":true},{"ua":"Mozilla/5.0 (Windows NT 10.0; Win64; x64) AppleWebKit/537.36 (KHTML, like Gecko) Chrome/95.0.4638.69 Safari/537.36","userId":"0498cbe0-60ab-45be-984d-ded9dbcdc27d","dateTime":"2021-11-08T20:52:41.582Z","isRelevant":false}]
