[{"taskStarted":true,"userId":"524d2272-d17f-42aa-b335-772a7ac10972","dateTime":"2021-11-10T16:29:37.541Z","isRelevant":false},{"internal_node_id":"0.0-0.0-1.0","rt":3329,"response":" ","trial_type":"html-keyboard-response","stimulus":"<h2>Reading the Mind in the Eyes Task</h2> <p> You are about to start a new task. In this task, you will be asked to view a series of photographs and to describe what the person in the picture is thinking or feeling. </p> <em>Press the space bar to continue</em>","time_elapsed":3331,"trial_index":0,"userId":"524d2272-d17f-42aa-b335-772a7ac10972","dateTime":"2021-11-10T16:29:40.872Z","isRelevant":false},{"internal_node_id":"0.0-0.0-2.0","rt":16344,"response":" ","trial_type":"html-keyboard-response","stimulus":"<p> You will see a series of photographs of eyes. For each set of eyes, type 1, 2, 3 or 4 to choose which word best describes what the person in the picture is thinking or feeling. You may feel that more than one word is applicable but please choose just one word, the word which you consider to be most suitable. Before making your choice, make sure that you have read all 4 words. You should try to do the task as quickly as possible. If you do not know what a word means, place your mouse over it and you will see its definition. </p> <em>Press the space bar to continue</em>","time_elapsed":19676,"trial_index":1,"userId":"524d2272-d17f-42aa-b335-772a7ac10972","dateTime":"2021-11-10T16:29:57.217Z","isRelevant":false},{"internal_node_id":"0.0-0.0-3.0-0.0","rt":8062,"isPractice":true,"response":"3","trial_type":"html-keyboard-response","stimulus":"<div class=\"mind-eyes-words\"><span class=\"mind-eyes-left tooltip\">1. jealous <span class=\"tooltiptext bottom\">envious<hr/>Tony was jealous of all the taller, better-looking boys in his class.</span></span><span class=\"mind-eyes-right tooltip\">2. panicked <span class=\"tooltiptext bottom\">distraught, feeling of terror or anxiety<hr/>On waking to find the house on fire, the whole family were panicked.</span></span></div><img src=\"https://d3vowlh1lzbs4j.cloudfront.net/eye/practice.jpg\"/><div class=\"words\"><span class=\"mind-eyes-left tooltip\">3. arrogant <span class=\"tooltiptext top\">conceited, self-important, having a big opinion of oneself<hr/>The arrogant man thought he knew more about politics than everyone else in the room.</span></span><span class=\"mind-eyes-right tooltip\">4. hateful <span class=\"tooltiptext top\">showing intense dislike<hr/>The two sisters were hateful to each other and always fighting.</span></span></div>","time_elapsed":27740,"words":["jealous","panicked","arrogant","hateful"],"trial_index":2,"pic":"practice","userId":"524d2272-d17f-42aa-b335-772a7ac10972","dateTime":"2021-11-10T16:30:05.282Z","isRelevant":true},{"internal_node_id":"0.0-0.0-4.0-0.0","rt":4230,"response":"3","trial_type":"html-keyboard-response","stimulus":"<div class=\"mind-eyes-words\"><span class=\"mind-eyes-left tooltip\">1. indifferent <span class=\"tooltiptext bottom\">disinterested, unresponsive, don’t care<hr/>Terry was completely indifferent as to whether they went to the cinema or the pub.</span></span><span class=\"mind-eyes-right tooltip\">2. embarrassed <span class=\"tooltiptext bottom\">ashamed<hr/>After forgetting a colleague’s name, Jenny felt very embarrassed.</span></span></div><img src=\"https://d3vowlh1lzbs4j.cloudfront.net/eye/12.jpg\"/><div class=\"words\"><span class=\"mind-eyes-left tooltip\">3. sceptical <span class=\"tooltiptext top\">doubtful, suspicious, mistrusting<hr/>Patrick looked sceptical as someone read out his horoscope to him.</span></span><span class=\"mind-eyes-right tooltip\">4. dispirited <span class=\"tooltiptext top\">glum, miserable, low<hr/>Adam was dispirited when he failed his exams.</span></span></div>","time_elapsed":31972,"words":["indifferent","embarrassed","sceptical","dispirited"],"trial_index":3,"pic":12,"userId":"524d2272-d17f-42aa-b335-772a7ac10972","dateTime":"2021-11-10T16:30:09.514Z","isRelevant":true},{"internal_node_id":"0.0-0.0-4.0-0.1","rt":3334,"response":"1","trial_type":"html-keyboard-response","stimulus":"<div class=\"mind-eyes-words\"><span class=\"mind-eyes-left tooltip\">1. decisive <span class=\"tooltiptext bottom\">already made your mind up<hr/>Jane looked very decisive as she walked into the polling station.</span></span><span class=\"mind-eyes-right tooltip\">2. amused <span class=\"tooltiptext bottom\">finding something funny<hr/>I was amused by a funny joke someone told me.</span></span></div><img src=\"https://d3vowlh1lzbs4j.cloudfront.net/eye/18.jpg\"/><div class=\"words\"><span class=\"mind-eyes-left tooltip\">3. aghast <span class=\"tooltiptext top\">horrified, astonished, alarmed<hr/>Jane was aghast when she discovered her house had been burgled.</span></span><span class=\"mind-eyes-right tooltip\">4. bored <span class=\"tooltiptext top\">feeling weary because one is unoccupied or lacks interest in one’s current activity<hr/>I am bored today.</span></span></div>","time_elapsed":35308,"words":["decisive","amused","aghast","bored"],"trial_index":4,"pic":18,"userId":"524d2272-d17f-42aa-b335-772a7ac10972","dateTime":"2021-11-10T16:30:12.850Z","isRelevant":true},{"internal_node_id":"0.0-0.0-4.0-0.2","rt":15214,"response":"4","trial_type":"html-keyboard-response","stimulus":"<div class=\"mind-eyes-words\"><span class=\"mind-eyes-left tooltip\">1. panicked <span class=\"tooltiptext bottom\">distraught, feeling of terror or anxiety<hr/>On waking to find the house on fire, the whole family were panicked.</span></span><span class=\"mind-eyes-right tooltip\">2. incredulous <span class=\"tooltiptext bottom\">not believing<hr/>Simon was incredulous when he heard that he had won the lottery.</span></span></div><img src=\"https://d3vowlh1lzbs4j.cloudfront.net/eye/25.jpg\"/><div class=\"words\"><span class=\"mind-eyes-left tooltip\">3. despondent <span class=\"tooltiptext top\">gloomy, despairing, without hope<hr/>Gary was despondent when he did not get the job he wanted.</span></span><span class=\"mind-eyes-right tooltip\">4. interested <span class=\"tooltiptext top\">inquiring, curious<hr/>After seeing Jurassic Park, Huge grew very interested in dinosaurs.</span></span></div>","time_elapsed":50525,"words":["panicked","incredulous","despondent","interested"],"trial_index":5,"pic":25,"userId":"524d2272-d17f-42aa-b335-772a7ac10972","dateTime":"2021-11-10T16:30:28.066Z","isRelevant":true},{"internal_node_id":"0.0-0.0-4.0-0.3","rt":3927,"response":"2","trial_type":"html-keyboard-response","stimulus":"<div class=\"mind-eyes-words\"><span class=\"mind-eyes-left tooltip\">1. ashamed <span class=\"tooltiptext bottom\">overcome with shame or guilt<hr/>The boy felt ashamed when his mother discovered him stealing money from her purse.</span></span><span class=\"mind-eyes-right tooltip\">2. confident <span class=\"tooltiptext bottom\">self-assured, believing in oneself<hr/>The tennis player was feeling very confident about winning his match.</span></span></div><img src=\"https://d3vowlh1lzbs4j.cloudfront.net/eye/31.jpg\"/><div class=\"words\"><span class=\"mind-eyes-left tooltip\">3. joking <span class=\"tooltiptext top\">being funny, playful<hr/>Gary was always joking with his friends.</span></span><span class=\"mind-eyes-right tooltip\">4. dispirited <span class=\"tooltiptext top\">glum, miserable, low<hr/>Adam was dispirited when he failed his exams.</span></span></div>","time_elapsed":54453,"words":["ashamed","confident","joking","dispirited"],"trial_index":6,"pic":31,"userId":"524d2272-d17f-42aa-b335-772a7ac10972","dateTime":"2021-11-10T16:30:31.994Z","isRelevant":true},{"internal_node_id":"0.0-0.0-4.0-0.4","rt":4422,"response":"3","trial_type":"html-keyboard-response","stimulus":"<div class=\"mind-eyes-words\"><span class=\"mind-eyes-left tooltip\">1. ashamed <span class=\"tooltiptext bottom\">overcome with shame or guilt<hr/>The boy felt ashamed when his mother discovered him stealing money from her purse.</span></span><span class=\"mind-eyes-right tooltip\">2. nervous <span class=\"tooltiptext bottom\">apprehensive, tense, worried<hr/>Just before her job interview, Alice felt very nervous.</span></span></div><img src=\"https://d3vowlh1lzbs4j.cloudfront.net/eye/36.jpg\"/><div class=\"words\"><span class=\"mind-eyes-left tooltip\">3. suspicious <span class=\"tooltiptext top\">disbelieving, suspecting, doubting<hr/>After Sam had lost his wallet for the second time at work, he grew suspicious of one of his colleagues.</span></span><span class=\"mind-eyes-right tooltip\">4. indecisive <span class=\"tooltiptext top\">unsure, hesitant, unable to make your mind up<hr/>Tammy was so indecisive that she couldn’t even decide what to have for lunch.</span></span></div>","time_elapsed":58876,"words":["ashamed","nervous","suspicious","indecisive"],"trial_index":7,"pic":36,"userId":"524d2272-d17f-42aa-b335-772a7ac10972","dateTime":"2021-11-10T16:30:36.418Z","isRelevant":true},{"internal_node_id":"0.0-0.0-4.0-0.5","rt":6895,"response":"3","trial_type":"html-keyboard-response","stimulus":"<div class=\"mind-eyes-words\"><span class=\"mind-eyes-left tooltip\">1. puzzled <span class=\"tooltiptext bottom\">perplexed, bewildered, confused<hr/>After doing the crossword for an hour, June was still puzzled by one clue.</span></span><span class=\"mind-eyes-right tooltip\">2. nervous <span class=\"tooltiptext bottom\">apprehensive, tense, worried<hr/>Just before her job interview, Alice felt very nervous.</span></span></div><img src=\"https://d3vowlh1lzbs4j.cloudfront.net/eye/35.jpg\"/><div class=\"words\"><span class=\"mind-eyes-left tooltip\">3. insisting <span class=\"tooltiptext top\">demanding, persisting, maintaining<hr/>After a work outing, Frank was insisting he paid the bill for everyone.</span></span><span class=\"mind-eyes-right tooltip\">4. contemplative <span class=\"tooltiptext top\">reflective, thoughtful, considering<hr/>John was in a contemplative mood on the eve of his 60th birthday.</span></span></div>","time_elapsed":65773,"words":["puzzled","nervous","insisting","contemplative"],"trial_index":8,"pic":35,"userId":"524d2272-d17f-42aa-b335-772a7ac10972","dateTime":"2021-11-10T16:30:43.314Z","isRelevant":true},{"ua":"Mozilla/5.0 (Macintosh; Intel Mac OS X 10.15; rv:94.0) Gecko/20100101 Firefox/94.0","userId":"524d2272-d17f-42aa-b335-772a7ac10972","dateTime":"2021-11-10T16:30:43.316Z","isRelevant":false},{"taskStarted":true,"userId":"524d2272-d17f-42aa-b335-772a7ac10972","dateTime":"2021-11-11T16:26:12.947Z","isRelevant":false},{"internal_node_id":"0.0-0.0-1.0","rt":2446,"response":" ","trial_type":"html-keyboard-response","stimulus":"<h2>Reading the Mind in the Eyes Task</h2> <p> You are about to start a new task. In this task, you will be asked to view a series of photographs and to describe what the person in the picture is thinking or feeling. </p> <em>Press the space bar to continue</em>","time_elapsed":2447,"trial_index":0,"userId":"524d2272-d17f-42aa-b335-772a7ac10972","dateTime":"2021-11-11T16:26:15.394Z","isRelevant":false},{"internal_node_id":"0.0-0.0-2.0","rt":2007,"response":" ","trial_type":"html-keyboard-response","stimulus":"<p> You will see a series of photographs of eyes. For each set of eyes, type 1, 2, 3 or 4 to choose which word best describes what the person in the picture is thinking or feeling. You may feel that more than one word is applicable but please choose just one word, the word which you consider to be most suitable. Before making your choice, make sure that you have read all 4 words. You should try to do the task as quickly as possible. If you do not know what a word means, place your mouse over it and you will see its definition. </p> <em>Press the space bar to continue</em>","time_elapsed":4455,"trial_index":1,"userId":"524d2272-d17f-42aa-b335-772a7ac10972","dateTime":"2021-11-11T16:26:17.402Z","isRelevant":false},{"internal_node_id":"0.0-0.0-3.0-0.0","rt":10551,"response":"1","trial_type":"html-keyboard-response","stimulus":"<div class=\"mind-eyes-words\"><span class=\"mind-eyes-left tooltip\">1. doubtful <span class=\"tooltiptext bottom\">dubious, suspicious, not really believing<hr/>Mary was doubtful that her son was telling the truth.</span></span><span class=\"mind-eyes-right tooltip\">2. affectionate <span class=\"tooltiptext bottom\">showing fondness toward someone<hr/>Most mothers are affectionate to their babies by giving them lots of kisses and cuddles.</span></span></div><img src=\"https://d3vowlh1lzbs4j.cloudfront.net/eye/17.jpg\"/><div class=\"words\"><span class=\"mind-eyes-left tooltip\">3. playful <span class=\"tooltiptext top\">full of high spirits and fun<hr/>Neil was feeling playful at his birthday party.</span></span><span class=\"mind-eyes-right tooltip\">4. aghast <span class=\"tooltiptext top\">horrified, astonished, alarmed<hr/>Jane was aghast when she discovered her house had been burgled.</span></span></div>","time_elapsed":15007,"words":["doubtful","affectionate","playful","aghast"],"trial_index":2,"pic":17,"userId":"524d2272-d17f-42aa-b335-772a7ac10972","dateTime":"2021-11-11T16:26:27.955Z","isRelevant":true},{"internal_node_id":"0.0-0.0-3.0-0.1","rt":15589,"response":"1","trial_type":"html-keyboard-response","stimulus":"<div class=\"mind-eyes-words\"><span class=\"mind-eyes-left tooltip\">1. preoccupied <span class=\"tooltiptext bottom\">absorbed, engrossed in one’s own thoughts<hr/>Worrying about her mother’s illness made Debbie preoccupied at work</span></span><span class=\"mind-eyes-right tooltip\">2. grateful <span class=\"tooltiptext bottom\">thankful<hr/>Kelly was very grateful for the kindness shown by the stranger.</span></span></div><img src=\"https://d3vowlh1lzbs4j.cloudfront.net/eye/22.jpg\"/><div class=\"words\"><span class=\"mind-eyes-left tooltip\">3. insisting <span class=\"tooltiptext top\">demanding, persisting, maintaining<hr/>After a work outing, Frank was insisting he paid the bill for everyone.</span></span><span class=\"mind-eyes-right tooltip\">4. imploring <span class=\"tooltiptext top\">begging, pleading<hr/>Nicola looked imploring as she tried to persuade her dad to lend her the car.</span></span></div>","time_elapsed":30599,"words":["preoccupied","grateful","insisting","imploring"],"trial_index":3,"pic":22,"userId":"524d2272-d17f-42aa-b335-772a7ac10972","dateTime":"2021-11-11T16:26:43.547Z","isRelevant":true},{"internal_node_id":"0.0-0.0-3.0-0.2","rt":14823,"response":"1","trial_type":"html-keyboard-response","stimulus":"<div class=\"mind-eyes-words\"><span class=\"mind-eyes-left tooltip\">1. cautious <span class=\"tooltiptext bottom\">careful, wary<hr/>Sarah was always a bit cautious when talking to someone she did not know.</span></span><span class=\"mind-eyes-right tooltip\">2. insisting <span class=\"tooltiptext bottom\">demanding, persisting, maintaining<hr/>After a work outing, Frank was insisting he paid the bill for everyone.</span></span></div><img src=\"https://d3vowlh1lzbs4j.cloudfront.net/eye/10.jpg\"/><div class=\"words\"><span class=\"mind-eyes-left tooltip\">3. bored <span class=\"tooltiptext top\">feeling weary because one is unoccupied or lacks interest in one’s current activity<hr/>I am bored today.</span></span><span class=\"mind-eyes-right tooltip\">4. aghast <span class=\"tooltiptext top\">horrified, astonished, alarmed<hr/>Jane was aghast when she discovered her house had been burgled.</span></span></div>","time_elapsed":45424,"words":["cautious","insisting","bored","aghast"],"trial_index":4,"pic":10,"userId":"524d2272-d17f-42aa-b335-772a7ac10972","dateTime":"2021-11-11T16:26:58.372Z","isRelevant":true},{"internal_node_id":"0.0-0.0-3.0-0.3","rt":8958,"response":"4","trial_type":"html-keyboard-response","stimulus":"<div class=\"mind-eyes-words\"><span class=\"mind-eyes-left tooltip\">1. joking <span class=\"tooltiptext bottom\">being funny, playful<hr/>Gary was always joking with his friends.</span></span><span class=\"mind-eyes-right tooltip\">2. cautious <span class=\"tooltiptext bottom\">careful, wary<hr/>Sarah was always a bit cautious when talking to someone she did not know.</span></span></div><img src=\"https://d3vowlh1lzbs4j.cloudfront.net/eye/27.jpg\"/><div class=\"words\"><span class=\"mind-eyes-left tooltip\">3. arrogant <span class=\"tooltiptext top\">conceited, self-important, having a big opinion of oneself<hr/>The arrogant man thought he knew more about politics than everyone else in the room.</span></span><span class=\"mind-eyes-right tooltip\">4. reassuring <span class=\"tooltiptext top\">supporting, encouraging, giving someone confidence<hr/>Andy tried to look reassuring as he told his wife that her new dress did suit her.</span></span></div>","time_elapsed":54385,"words":["joking","cautious","arrogant","reassuring"],"trial_index":5,"pic":27,"userId":"524d2272-d17f-42aa-b335-772a7ac10972","dateTime":"2021-11-11T16:27:07.332Z","isRelevant":true},{"internal_node_id":"0.0-0.0-3.0-0.4","rt":6295,"response":"4","trial_type":"html-keyboard-response","stimulus":"<div class=\"mind-eyes-words\"><span class=\"mind-eyes-left tooltip\">1. impatient <span class=\"tooltiptext bottom\">restless, wanting something to happen soon<hr/>Jane grew increasingly impatient as she waited for her friend who was already 20 minutes late.</span></span><span class=\"mind-eyes-right tooltip\">2. aghast <span class=\"tooltiptext bottom\">horrified, astonished, alarmed<hr/>Jane was aghast when she discovered her house had been burgled.</span></span></div><img src=\"https://d3vowlh1lzbs4j.cloudfront.net/eye/29.jpg\"/><div class=\"words\"><span class=\"mind-eyes-left tooltip\">3. irritated <span class=\"tooltiptext top\">exasperated, annoyed<hr/>Frances was irritated by all the junk mail she received.</span></span><span class=\"mind-eyes-right tooltip\">4. reflective <span class=\"tooltiptext top\">contemplative, thoughtful<hr/>George was in a reflective mood as he thought about what he’d done with his life.</span></span></div>","time_elapsed":60681,"words":["impatient","aghast","irritated","reflective"],"trial_index":6,"pic":29,"userId":"524d2272-d17f-42aa-b335-772a7ac10972","dateTime":"2021-11-11T16:27:13.628Z","isRelevant":true},{"internal_node_id":"0.0-0.0-3.0-0.5","rt":10830,"response":"4","trial_type":"html-keyboard-response","stimulus":"<div class=\"mind-eyes-words\"><span class=\"mind-eyes-left tooltip\">1. despondent <span class=\"tooltiptext bottom\">gloomy, despairing, without hope<hr/>Gary was despondent when he did not get the job he wanted.</span></span><span class=\"mind-eyes-right tooltip\">2. relieved <span class=\"tooltiptext bottom\">freed from worry or anxiety<hr/>At the restaurant, Ray was relieved to find he had not forgotten his wallet.</span></span></div><img src=\"https://d3vowlh1lzbs4j.cloudfront.net/eye/8.jpg\"/><div class=\"words\"><span class=\"mind-eyes-left tooltip\">3. shy <span class=\"tooltiptext top\">being reserved or having or showing nervousness or timidity in the company of other people<hr/>I was pretty shy at school.</span></span><span class=\"mind-eyes-right tooltip\">4. excited <span class=\"tooltiptext top\">very enthusiastic and eager<hr/>They were excited about the prospect.</span></span></div>","time_elapsed":71513,"words":["despondent","relieved","shy","excited"],"trial_index":7,"pic":8,"userId":"524d2272-d17f-42aa-b335-772a7ac10972","dateTime":"2021-11-11T16:27:24.460Z","isRelevant":true},{"ua":"Mozilla/5.0 (Macintosh; Intel Mac OS X 10.15; rv:94.0) Gecko/20100101 Firefox/94.0","userId":"524d2272-d17f-42aa-b335-772a7ac10972","dateTime":"2021-11-11T16:27:24.462Z","isRelevant":false},{"taskStarted":true,"userId":"524d2272-d17f-42aa-b335-772a7ac10972","dateTime":"2021-11-13T00:11:13.392Z","isRelevant":false},{"internal_node_id":"0.0-0.0-1.0","rt":3373,"response":" ","trial_type":"html-keyboard-response","stimulus":"<h2>Reading the Mind in the Eyes Task</h2> <p> You are about to start a new task. In this task, you will be asked to view a series of photographs and to describe what the person in the picture is thinking or feeling. </p> <em>Press the space bar to continue</em>","time_elapsed":3376,"trial_index":0,"userId":"524d2272-d17f-42aa-b335-772a7ac10972","dateTime":"2021-11-13T00:11:16.768Z","isRelevant":false},{"internal_node_id":"0.0-0.0-2.0","rt":2312,"response":" ","trial_type":"html-keyboard-response","stimulus":"<p> You will see a series of photographs of eyes. For each set of eyes, type 1, 2, 3 or 4 to choose which word best describes what the person in the picture is thinking or feeling. You may feel that more than one word is applicable but please choose just one word, the word which you consider to be most suitable. Before making your choice, make sure that you have read all 4 words. You should try to do the task as quickly as possible. If you do not know what a word means, place your mouse over it and you will see its definition. </p> <em>Press the space bar to continue</em>","time_elapsed":5688,"trial_index":1,"userId":"524d2272-d17f-42aa-b335-772a7ac10972","dateTime":"2021-11-13T00:11:19.080Z","isRelevant":false},{"internal_node_id":"0.0-0.0-3.0-0.0","rt":10062,"response":"4","trial_type":"html-keyboard-response","stimulus":"<div class=\"mind-eyes-words\"><span class=\"mind-eyes-left tooltip\">1. annoyed <span class=\"tooltiptext bottom\">irritated, displeased<hr/>Jack was annoyed when he found out he had missed the last bus home.</span></span><span class=\"mind-eyes-right tooltip\">2. hostile <span class=\"tooltiptext bottom\">unfriendly<hr/>The two neighbours were hostile towards each other because of an argument about loud music.</span></span></div><img src=\"https://d3vowlh1lzbs4j.cloudfront.net/eye/9.jpg\"/><div class=\"words\"><span class=\"mind-eyes-left tooltip\">3. horrified <span class=\"tooltiptext top\">terrified, appalled<hr/>The man was horrified to discover that his new wife was already married.</span></span><span class=\"mind-eyes-right tooltip\">4. preoccupied <span class=\"tooltiptext top\">absorbed, engrossed in one’s own thoughts<hr/>Worrying about her mother’s illness made Debbie preoccupied at work</span></span></div>","time_elapsed":15753,"words":["annoyed","hostile","horrified","preoccupied"],"trial_index":2,"pic":9,"userId":"524d2272-d17f-42aa-b335-772a7ac10972","dateTime":"2021-11-13T00:11:29.151Z","isRelevant":true},{"internal_node_id":"0.0-0.0-3.0-0.1","rt":18232,"response":"3","trial_type":"html-keyboard-response","stimulus":"<div class=\"mind-eyes-words\"><span class=\"mind-eyes-left tooltip\">1. aghast <span class=\"tooltiptext bottom\">horrified, astonished, alarmed<hr/>Jane was aghast when she discovered her house had been burgled.</span></span><span class=\"mind-eyes-right tooltip\">2. baffled <span class=\"tooltiptext bottom\">confused, puzzled, dumfounded<hr/>The detectives were completely baffled by the murder case.</span></span></div><img src=\"https://d3vowlh1lzbs4j.cloudfront.net/eye/34.jpg\"/><div class=\"words\"><span class=\"mind-eyes-left tooltip\">3. distrustful <span class=\"tooltiptext top\">suspicious, doubtful, wary<hr/>The old woman was distrustful of the stranger at her door.</span></span><span class=\"mind-eyes-right tooltip\">4. terrified <span class=\"tooltiptext top\">alarmed, fearful<hr/>The boy was terrified when he thought he saw a ghost.</span></span></div>","time_elapsed":33993,"words":["aghast","baffled","distrustful","terrified"],"trial_index":3,"pic":34,"userId":"524d2272-d17f-42aa-b335-772a7ac10972","dateTime":"2021-11-13T00:11:47.386Z","isRelevant":true},{"internal_node_id":"0.0-0.0-3.0-0.2","rt":12039,"response":"1","trial_type":"html-keyboard-response","stimulus":"<div class=\"mind-eyes-words\"><span class=\"mind-eyes-left tooltip\">1. serious <span class=\"tooltiptext bottom\">solemn, grave<hr/>The bank manager looked serious as he refused Nigel an overdraft.</span></span><span class=\"mind-eyes-right tooltip\">2. ashamed <span class=\"tooltiptext bottom\">overcome with shame or guilt<hr/>The boy felt ashamed when his mother discovered him stealing money from her purse.</span></span></div><img src=\"https://d3vowlh1lzbs4j.cloudfront.net/eye/32.jpg\"/><div class=\"words\"><span class=\"mind-eyes-left tooltip\">3. bewildered <span class=\"tooltiptext top\">utterly confused, puzzled, dazed<hr/>The child was bewildered when visiting the big city for the first time.</span></span><span class=\"mind-eyes-right tooltip\">4. alarmed <span class=\"tooltiptext top\">fearful, worried, filled with anxiety<hr/>Claire was alarmed when she thought she was being followed home.</span></span></div>","time_elapsed":46034,"words":["serious","ashamed","bewildered","alarmed"],"trial_index":4,"pic":32,"userId":"524d2272-d17f-42aa-b335-772a7ac10972","dateTime":"2021-11-13T00:11:59.426Z","isRelevant":true},{"internal_node_id":"0.0-0.0-3.0-0.3","rt":12878,"response":"4","trial_type":"html-keyboard-response","stimulus":"<div class=\"mind-eyes-words\"><span class=\"mind-eyes-left tooltip\">1. contented <span class=\"tooltiptext bottom\">satisfied<hr/>After a nice walk and a good meal, David felt very contented.</span></span><span class=\"mind-eyes-right tooltip\">2. apologetic <span class=\"tooltiptext bottom\">feeling sorry<hr/>The waiter was very apologetic when he spilt soup all over the customer.</span></span></div><img src=\"https://d3vowlh1lzbs4j.cloudfront.net/eye/23.jpg\"/><div class=\"words\"><span class=\"mind-eyes-left tooltip\">3. defiant <span class=\"tooltiptext top\">insolent, bold, don’t care what anyone else thinks<hr/>The animal protester remained defiant even after being sent to prison.</span></span><span class=\"mind-eyes-right tooltip\">4. curious <span class=\"tooltiptext top\">inquisitive, inquiring, prying<hr/>Louise was curious about the strange-shaped parcel.</span></span></div>","time_elapsed":58914,"words":["contented","apologetic","defiant","curious"],"trial_index":5,"pic":23,"userId":"524d2272-d17f-42aa-b335-772a7ac10972","dateTime":"2021-11-13T00:12:12.306Z","isRelevant":true},{"internal_node_id":"0.0-0.0-3.0-0.4","rt":8919,"response":"3","trial_type":"html-keyboard-response","stimulus":"<div class=\"mind-eyes-words\"><span class=\"mind-eyes-left tooltip\">1. alarmed <span class=\"tooltiptext bottom\">fearful, worried, filled with anxiety<hr/>Claire was alarmed when she thought she was being followed home.</span></span><span class=\"mind-eyes-right tooltip\">2. shy <span class=\"tooltiptext bottom\">being reserved or having or showing nervousness or timidity in the company of other people<hr/>I was pretty shy at school.</span></span></div><img src=\"https://d3vowlh1lzbs4j.cloudfront.net/eye/26.jpg\"/><div class=\"words\"><span class=\"mind-eyes-left tooltip\">3. hostile <span class=\"tooltiptext top\">unfriendly<hr/>The two neighbours were hostile towards each other because of an argument about loud music.</span></span><span class=\"mind-eyes-right tooltip\">4. anxious <span class=\"tooltiptext top\">worried, tense, uneasy<hr/>The student was feeling anxious before taking her final exams.</span></span></div>","time_elapsed":67834,"words":["alarmed","shy","hostile","anxious"],"trial_index":6,"pic":26,"userId":"524d2272-d17f-42aa-b335-772a7ac10972","dateTime":"2021-11-13T00:12:21.226Z","isRelevant":true},{"internal_node_id":"0.0-0.0-3.0-0.5","rt":17687,"response":"2","trial_type":"html-keyboard-response","stimulus":"<div class=\"mind-eyes-words\"><span class=\"mind-eyes-left tooltip\">1. arrogant <span class=\"tooltiptext bottom\">conceited, self-important, having a big opinion of oneself<hr/>The arrogant man thought he knew more about politics than everyone else in the room.</span></span><span class=\"mind-eyes-right tooltip\">2. grateful <span class=\"tooltiptext bottom\">thankful<hr/>Kelly was very grateful for the kindness shown by the stranger.</span></span></div><img src=\"https://d3vowlh1lzbs4j.cloudfront.net/eye/19.jpg\"/><div class=\"words\"><span class=\"mind-eyes-left tooltip\">3. sarcastic <span class=\"tooltiptext top\">cynical, mocking, scornful<hr/>The comedian made a sarcastic comment when someone came into the theatre late.</span></span><span class=\"mind-eyes-right tooltip\">4. tentative <span class=\"tooltiptext top\">hesitant, uncertain, cautious<hr/>Andrew felt a bit tentative as he went into the room full of strangers.</span></span></div>","time_elapsed":85523,"words":["arrogant","grateful","sarcastic","tentative"],"trial_index":7,"pic":19,"userId":"524d2272-d17f-42aa-b335-772a7ac10972","dateTime":"2021-11-13T00:12:38.915Z","isRelevant":true},{"ua":"Mozilla/5.0 (Macintosh; Intel Mac OS X 10.15; rv:94.0) Gecko/20100101 Firefox/94.0","userId":"524d2272-d17f-42aa-b335-772a7ac10972","dateTime":"2021-11-13T00:12:38.916Z","isRelevant":false},{"taskStarted":true,"userId":"524d2272-d17f-42aa-b335-772a7ac10972","dateTime":"2021-11-13T22:43:18.009Z","isRelevant":false},{"internal_node_id":"0.0-0.0-1.0","rt":1856,"response":" ","trial_type":"html-keyboard-response","stimulus":"<h2>Reading the Mind in the Eyes Task</h2> <p> You are about to start a new task. In this task, you will be asked to view a series of photographs and to describe what the person in the picture is thinking or feeling. </p> <em>Press the space bar to continue</em>","time_elapsed":1857,"trial_index":0,"userId":"524d2272-d17f-42aa-b335-772a7ac10972","dateTime":"2021-11-13T22:43:19.866Z","isRelevant":false},{"internal_node_id":"0.0-0.0-2.0","rt":958,"response":" ","trial_type":"html-keyboard-response","stimulus":"<p> You will see a series of photographs of eyes. For each set of eyes, type 1, 2, 3 or 4 to choose which word best describes what the person in the picture is thinking or feeling. You may feel that more than one word is applicable but please choose just one word, the word which you consider to be most suitable. Before making your choice, make sure that you have read all 4 words. You should try to do the task as quickly as possible. If you do not know what a word means, place your mouse over it and you will see its definition. </p> <em>Press the space bar to continue</em>","time_elapsed":2816,"trial_index":1,"userId":"524d2272-d17f-42aa-b335-772a7ac10972","dateTime":"2021-11-13T22:43:20.825Z","isRelevant":false},{"internal_node_id":"0.0-0.0-3.0-0.0","rt":10414,"response":"1","trial_type":"html-keyboard-response","stimulus":"<div class=\"mind-eyes-words\"><span class=\"mind-eyes-left tooltip\">1. playful <span class=\"tooltiptext bottom\">full of high spirits and fun<hr/>Neil was feeling playful at his birthday party.</span></span><span class=\"mind-eyes-right tooltip\">2. comforting <span class=\"tooltiptext bottom\">consoling, compassionate<hr/>The nurse was comforting the wounded soldier.</span></span></div><img src=\"https://d3vowlh1lzbs4j.cloudfront.net/eye/1.jpg\"/><div class=\"words\"><span class=\"mind-eyes-left tooltip\">3. irritated <span class=\"tooltiptext top\">exasperated, annoyed<hr/>Frances was irritated by all the junk mail she received.</span></span><span class=\"mind-eyes-right tooltip\">4. bored <span class=\"tooltiptext top\">feeling weary because one is unoccupied or lacks interest in one’s current activity<hr/>I am bored today.</span></span></div>","time_elapsed":13233,"words":["playful","comforting","irritated","bored"],"trial_index":2,"pic":1,"userId":"524d2272-d17f-42aa-b335-772a7ac10972","dateTime":"2021-11-13T22:43:31.242Z","isRelevant":true},{"internal_node_id":"0.0-0.0-3.0-0.1","rt":5542,"response":"2","trial_type":"html-keyboard-response","stimulus":"<div class=\"mind-eyes-words\"><span class=\"mind-eyes-left tooltip\">1. embarrassed <span class=\"tooltiptext bottom\">ashamed<hr/>After forgetting a colleague’s name, Jenny felt very embarrassed.</span></span><span class=\"mind-eyes-right tooltip\">2. fantasizing <span class=\"tooltiptext bottom\">daydreaming<hr/>Emma was fantasizing about being a film star.</span></span></div><img src=\"https://d3vowlh1lzbs4j.cloudfront.net/eye/21.jpg\"/><div class=\"words\"><span class=\"mind-eyes-left tooltip\">3. confused <span class=\"tooltiptext top\">puzzled, perplexed<hr/>Lizzie was so confused by the directions given to her, she got lost.</span></span><span class=\"mind-eyes-right tooltip\">4. panicked <span class=\"tooltiptext top\">distraught, feeling of terror or anxiety<hr/>On waking to find the house on fire, the whole family were panicked.</span></span></div>","time_elapsed":18777,"words":["embarrassed","fantasizing","confused","panicked"],"trial_index":3,"pic":21,"userId":"524d2272-d17f-42aa-b335-772a7ac10972","dateTime":"2021-11-13T22:43:36.786Z","isRelevant":true},{"internal_node_id":"0.0-0.0-3.0-0.2","rt":5782,"response":"1","trial_type":"html-keyboard-response","stimulus":"<div class=\"mind-eyes-words\"><span class=\"mind-eyes-left tooltip\">1. contemplative <span class=\"tooltiptext bottom\">reflective, thoughtful, considering<hr/>John was in a contemplative mood on the eve of his 60th birthday.</span></span><span class=\"mind-eyes-right tooltip\">2. flustered <span class=\"tooltiptext bottom\">confused, nervous and upset<hr/>Sarah felt a bit flustered when she realised how late she was for the meeting and that she had forgotten an important document.</span></span></div><img src=\"https://d3vowlh1lzbs4j.cloudfront.net/eye/15.jpg\"/><div class=\"words\"><span class=\"mind-eyes-left tooltip\">3. encouraging <span class=\"tooltiptext top\">hopeful, heartening, supporting<hr/>All the parents were encouraging their children in the school sports day.</span></span><span class=\"mind-eyes-right tooltip\">4. amused <span class=\"tooltiptext top\">finding something funny<hr/>I was amused by a funny joke someone told me.</span></span></div>","time_elapsed":24561,"words":["contemplative","flustered","encouraging","amused"],"trial_index":4,"pic":15,"userId":"524d2272-d17f-42aa-b335-772a7ac10972","dateTime":"2021-11-13T22:43:42.570Z","isRelevant":true},{"internal_node_id":"0.0-0.0-3.0-0.3","rt":4718,"response":"2","trial_type":"html-keyboard-response","stimulus":"<div class=\"mind-eyes-words\"><span class=\"mind-eyes-left tooltip\">1. joking <span class=\"tooltiptext bottom\">being funny, playful<hr/>Gary was always joking with his friends.</span></span><span class=\"mind-eyes-right tooltip\">2. insisting <span class=\"tooltiptext bottom\">demanding, persisting, maintaining<hr/>After a work outing, Frank was insisting he paid the bill for everyone.</span></span></div><img src=\"https://d3vowlh1lzbs4j.cloudfront.net/eye/4.jpg\"/><div class=\"words\"><span class=\"mind-eyes-left tooltip\">3. amused <span class=\"tooltiptext top\">finding something funny<hr/>I was amused by a funny joke someone told me.</span></span><span class=\"mind-eyes-right tooltip\">4. relaxed <span class=\"tooltiptext top\">taking it easy, calm, carefree<hr/>On holiday, Pam felt happy and relaxed.</span></span></div>","time_elapsed":29280,"words":["joking","insisting","amused","relaxed"],"trial_index":5,"pic":4,"userId":"524d2272-d17f-42aa-b335-772a7ac10972","dateTime":"2021-11-13T22:43:47.289Z","isRelevant":true},{"internal_node_id":"0.0-0.0-3.0-0.4","rt":6904,"response":"4","trial_type":"html-keyboard-response","stimulus":"<div class=\"mind-eyes-words\"><span class=\"mind-eyes-left tooltip\">1. irritated <span class=\"tooltiptext bottom\">exasperated, annoyed<hr/>Frances was irritated by all the junk mail she received.</span></span><span class=\"mind-eyes-right tooltip\">2. thoughtful <span class=\"tooltiptext bottom\">thinking about something<hr/>Phil looked thoughtful as he sat waiting for the girlfriend he was about to finish with.</span></span></div><img src=\"https://d3vowlh1lzbs4j.cloudfront.net/eye/16.jpg\"/><div class=\"words\"><span class=\"mind-eyes-left tooltip\">3. encouraging <span class=\"tooltiptext top\">hopeful, heartening, supporting<hr/>All the parents were encouraging their children in the school sports day.</span></span><span class=\"mind-eyes-right tooltip\">4. sympathetic <span class=\"tooltiptext top\">kind, compassionate<hr/>The nurse looked sympathetic as she told the patient the bad news.</span></span></div>","time_elapsed":36185,"words":["irritated","thoughtful","encouraging","sympathetic"],"trial_index":6,"pic":16,"userId":"524d2272-d17f-42aa-b335-772a7ac10972","dateTime":"2021-11-13T22:43:54.194Z","isRelevant":true},{"internal_node_id":"0.0-0.0-3.0-0.5","rt":11775,"response":"2","trial_type":"html-keyboard-response","stimulus":"<div class=\"mind-eyes-words\"><span class=\"mind-eyes-left tooltip\">1. terrified <span class=\"tooltiptext bottom\">alarmed, fearful<hr/>The boy was terrified when he thought he saw a ghost.</span></span><span class=\"mind-eyes-right tooltip\">2. amused <span class=\"tooltiptext bottom\">finding something funny<hr/>I was amused by a funny joke someone told me.</span></span></div><img src=\"https://d3vowlh1lzbs4j.cloudfront.net/eye/11.jpg\"/><div class=\"words\"><span class=\"mind-eyes-left tooltip\">3. regretful <span class=\"tooltiptext top\">sorry<hr/>Lee was always regretful that he had never travelled when he was younger.</span></span><span class=\"mind-eyes-right tooltip\">4. flirtatious <span class=\"tooltiptext top\">brazen, saucy, teasing, playful<hr/>Connie was accused of being flirtatious when she winked at a stranger at a party.</span></span></div>","time_elapsed":47962,"words":["terrified","amused","regretful","flirtatious"],"trial_index":7,"pic":11,"userId":"524d2272-d17f-42aa-b335-772a7ac10972","dateTime":"2021-11-13T22:44:05.971Z","isRelevant":true},{"ua":"Mozilla/5.0 (Macintosh; Intel Mac OS X 10.15; rv:94.0) Gecko/20100101 Firefox/94.0","userId":"524d2272-d17f-42aa-b335-772a7ac10972","dateTime":"2021-11-13T22:44:05.972Z","isRelevant":false},{"taskStarted":true,"userId":"524d2272-d17f-42aa-b335-772a7ac10972","dateTime":"2021-11-15T16:57:38.449Z","isRelevant":false},{"internal_node_id":"0.0-0.0-1.0","rt":1578,"response":" ","trial_type":"html-keyboard-response","stimulus":"<h2>Reading the Mind in the Eyes Task</h2> <p> You are about to start a new task. In this task, you will be asked to view a series of photographs and to describe what the person in the picture is thinking or feeling. </p> <em>Press the space bar to continue</em>","time_elapsed":1580,"trial_index":0,"userId":"524d2272-d17f-42aa-b335-772a7ac10972","dateTime":"2021-11-15T16:57:40.030Z","isRelevant":false},{"internal_node_id":"0.0-0.0-2.0","rt":711,"response":" ","trial_type":"html-keyboard-response","stimulus":"<p> You will see a series of photographs of eyes. For each set of eyes, type 1, 2, 3 or 4 to choose which word best describes what the person in the picture is thinking or feeling. You may feel that more than one word is applicable but please choose just one word, the word which you consider to be most suitable. Before making your choice, make sure that you have read all 4 words. You should try to do the task as quickly as possible. If you do not know what a word means, place your mouse over it and you will see its definition. </p> <em>Press the space bar to continue</em>","time_elapsed":2292,"trial_index":1,"userId":"524d2272-d17f-42aa-b335-772a7ac10972","dateTime":"2021-11-15T16:57:40.741Z","isRelevant":false},{"internal_node_id":"0.0-0.0-3.0-0.0","rt":13423,"response":"2","trial_type":"html-keyboard-response","stimulus":"<div class=\"mind-eyes-words\"><span class=\"mind-eyes-left tooltip\">1. decisive <span class=\"tooltiptext bottom\">already made your mind up<hr/>Jane looked very decisive as she walked into the polling station.</span></span><span class=\"mind-eyes-right tooltip\">2. anticipating <span class=\"tooltiptext bottom\">expecting<hr/>At the start of the football match, the fans were anticipating a quick goal.</span></span></div><img src=\"https://d3vowlh1lzbs4j.cloudfront.net/eye/13.jpg\"/><div class=\"words\"><span class=\"mind-eyes-left tooltip\">3. threatening <span class=\"tooltiptext top\">menacing, intimidating<hr/>The large, drunk man was acting in a very threatening way.</span></span><span class=\"mind-eyes-right tooltip\">4. shy <span class=\"tooltiptext top\">being reserved or having or showing nervousness or timidity in the company of other people<hr/>I was pretty shy at school.</span></span></div>","time_elapsed":15717,"words":["decisive","anticipating","threatening","shy"],"trial_index":2,"pic":13,"userId":"524d2272-d17f-42aa-b335-772a7ac10972","dateTime":"2021-11-15T16:57:54.167Z","isRelevant":true},{"internal_node_id":"0.0-0.0-3.0-0.1","rt":5991,"response":"2","trial_type":"html-keyboard-response","stimulus":"<div class=\"mind-eyes-words\"><span class=\"mind-eyes-left tooltip\">1. dominant <span class=\"tooltiptext bottom\">commanding, bossy<hr/>The sergeant major looked dominant as he inspected the new recruits.</span></span><span class=\"mind-eyes-right tooltip\">2. friendly <span class=\"tooltiptext bottom\">sociable, amiable<hr/>The friendly girl showed the tourists the way to the town centre.</span></span></div><img src=\"https://d3vowlh1lzbs4j.cloudfront.net/eye/20.jpg\"/><div class=\"words\"><span class=\"mind-eyes-left tooltip\">3. guilty <span class=\"tooltiptext top\">feeling sorry for doing something wrong<hr/>Charlie felt guilty about having an affair.</span></span><span class=\"mind-eyes-right tooltip\">4. horrified <span class=\"tooltiptext top\">terrified, appalled<hr/>The man was horrified to discover that his new wife was already married.</span></span></div>","time_elapsed":21710,"words":["dominant","friendly","guilty","horrified"],"trial_index":3,"pic":20,"userId":"524d2272-d17f-42aa-b335-772a7ac10972","dateTime":"2021-11-15T16:58:00.159Z","isRelevant":true},{"internal_node_id":"0.0-0.0-3.0-0.2","rt":6638,"response":"3","trial_type":"html-keyboard-response","stimulus":"<div class=\"mind-eyes-words\"><span class=\"mind-eyes-left tooltip\">1. irritated <span class=\"tooltiptext bottom\">exasperated, annoyed<hr/>Frances was irritated by all the junk mail she received.</span></span><span class=\"mind-eyes-right tooltip\">2. sarcastic <span class=\"tooltiptext bottom\">cynical, mocking, scornful<hr/>The comedian made a sarcastic comment when someone came into the theatre late.</span></span></div><img src=\"https://d3vowlh1lzbs4j.cloudfront.net/eye/5.jpg\"/><div class=\"words\"><span class=\"mind-eyes-left tooltip\">3. worried <span class=\"tooltiptext top\">anxious, fretful, troubled<hr/>When her cat went missing, the girl was very worried</span></span><span class=\"mind-eyes-right tooltip\">4. friendly <span class=\"tooltiptext top\">sociable, amiable<hr/>The friendly girl showed the tourists the way to the town centre.</span></span></div>","time_elapsed":28350,"words":["irritated","sarcastic","worried","friendly"],"trial_index":4,"pic":5,"userId":"524d2272-d17f-42aa-b335-772a7ac10972","dateTime":"2021-11-15T16:58:06.799Z","isRelevant":true},{"internal_node_id":"0.0-0.0-3.0-0.3","rt":9822,"response":"3","trial_type":"html-keyboard-response","stimulus":"<div class=\"mind-eyes-words\"><span class=\"mind-eyes-left tooltip\">1. joking <span class=\"tooltiptext bottom\">being funny, playful<hr/>Gary was always joking with his friends.</span></span><span class=\"mind-eyes-right tooltip\">2. flustered <span class=\"tooltiptext bottom\">confused, nervous and upset<hr/>Sarah felt a bit flustered when she realised how late she was for the meeting and that she had forgotten an important document.</span></span></div><img src=\"https://d3vowlh1lzbs4j.cloudfront.net/eye/3.jpg\"/><div class=\"words\"><span class=\"mind-eyes-left tooltip\">3. desire <span class=\"tooltiptext top\">passion, lust, longing for<hr/>Kate had a strong desire for chocolate.</span></span><span class=\"mind-eyes-right tooltip\">4. convinced <span class=\"tooltiptext top\">certain, absolutely positive<hr/>Richard was convinced he had come to the right decision.</span></span></div>","time_elapsed":38173,"words":["joking","flustered","desire","convinced"],"trial_index":5,"pic":3,"userId":"524d2272-d17f-42aa-b335-772a7ac10972","dateTime":"2021-11-15T16:58:16.622Z","isRelevant":true},{"internal_node_id":"0.0-0.0-3.0-0.4","rt":7150,"response":"3","trial_type":"html-keyboard-response","stimulus":"<div class=\"mind-eyes-words\"><span class=\"mind-eyes-left tooltip\">1. embarrassed <span class=\"tooltiptext bottom\">ashamed<hr/>After forgetting a colleague’s name, Jenny felt very embarrassed.</span></span><span class=\"mind-eyes-right tooltip\">2. guilty <span class=\"tooltiptext bottom\">feeling sorry for doing something wrong<hr/>Charlie felt guilty about having an affair.</span></span></div><img src=\"https://d3vowlh1lzbs4j.cloudfront.net/eye/33.jpg\"/><div class=\"words\"><span class=\"mind-eyes-left tooltip\">3. fantasizing <span class=\"tooltiptext top\">daydreaming<hr/>Emma was fantasizing about being a film star.</span></span><span class=\"mind-eyes-right tooltip\">4. concerned <span class=\"tooltiptext top\">worried, troubled<hr/>The doctor was concerned when his patient took a turn for the worse.</span></span></div>","time_elapsed":45326,"words":["embarrassed","guilty","fantasizing","concerned"],"trial_index":6,"pic":33,"userId":"524d2272-d17f-42aa-b335-772a7ac10972","dateTime":"2021-11-15T16:58:23.775Z","isRelevant":true},{"internal_node_id":"0.0-0.0-3.0-0.5","rt":7063,"response":"2","trial_type":"html-keyboard-response","stimulus":"<div class=\"mind-eyes-words\"><span class=\"mind-eyes-left tooltip\">1. apologetic <span class=\"tooltiptext bottom\">feeling sorry<hr/>The waiter was very apologetic when he spilt soup all over the customer.</span></span><span class=\"mind-eyes-right tooltip\">2. friendly <span class=\"tooltiptext bottom\">sociable, amiable<hr/>The friendly girl showed the tourists the way to the town centre.</span></span></div><img src=\"https://d3vowlh1lzbs4j.cloudfront.net/eye/7.jpg\"/><div class=\"words\"><span class=\"mind-eyes-left tooltip\">3. uneasy <span class=\"tooltiptext top\">unsettled, apprehensive, troubled<hr/>Karen felt slightly uneasy about accepting a lift from the man she had only met that day.</span></span><span class=\"mind-eyes-right tooltip\">4. dispirited <span class=\"tooltiptext top\">glum, miserable, low<hr/>Adam was dispirited when he failed his exams.</span></span></div>","time_elapsed":52390,"words":["apologetic","friendly","uneasy","dispirited"],"trial_index":7,"pic":7,"userId":"524d2272-d17f-42aa-b335-772a7ac10972","dateTime":"2021-11-15T16:58:30.839Z","isRelevant":true},{"ua":"Mozilla/5.0 (Macintosh; Intel Mac OS X 10.15; rv:94.0) Gecko/20100101 Firefox/94.0","userId":"524d2272-d17f-42aa-b335-772a7ac10972","dateTime":"2021-11-15T16:58:30.840Z","isRelevant":false},{"taskStarted":true,"userId":"524d2272-d17f-42aa-b335-772a7ac10972","dateTime":"2021-11-17T05:29:44.938Z","isRelevant":false},{"internal_node_id":"0.0-0.0-1.0","rt":2484,"response":" ","trial_type":"html-keyboard-response","stimulus":"<h2>Reading the Mind in the Eyes Task</h2> <p> You are about to start a new task. In this task, you will be asked to view a series of photographs and to describe what the person in the picture is thinking or feeling. </p> <em>Press the space bar to continue</em>","time_elapsed":2486,"trial_index":0,"userId":"524d2272-d17f-42aa-b335-772a7ac10972","dateTime":"2021-11-17T05:29:47.424Z","isRelevant":false},{"internal_node_id":"0.0-0.0-2.0","rt":1030,"response":" ","trial_type":"html-keyboard-response","stimulus":"<p> You will see a series of photographs of eyes. For each set of eyes, type 1, 2, 3 or 4 to choose which word best describes what the person in the picture is thinking or feeling. You may feel that more than one word is applicable but please choose just one word, the word which you consider to be most suitable. Before making your choice, make sure that you have read all 4 words. You should try to do the task as quickly as possible. If you do not know what a word means, place your mouse over it and you will see its definition. </p> <em>Press the space bar to continue</em>","time_elapsed":3516,"trial_index":1,"userId":"524d2272-d17f-42aa-b335-772a7ac10972","dateTime":"2021-11-17T05:29:48.454Z","isRelevant":false},{"internal_node_id":"0.0-0.0-3.0-0.0","rt":9214,"response":"3","trial_type":"html-keyboard-response","stimulus":"<div class=\"mind-eyes-words\"><span class=\"mind-eyes-left tooltip\">1. interested <span class=\"tooltiptext bottom\">inquiring, curious<hr/>After seeing Jurassic Park, Huge grew very interested in dinosaurs.</span></span><span class=\"mind-eyes-right tooltip\">2. joking <span class=\"tooltiptext bottom\">being funny, playful<hr/>Gary was always joking with his friends.</span></span></div><img src=\"https://d3vowlh1lzbs4j.cloudfront.net/eye/28.jpg\"/><div class=\"words\"><span class=\"mind-eyes-left tooltip\">3. affectionate <span class=\"tooltiptext top\">showing fondness toward someone<hr/>Most mothers are affectionate to their babies by giving them lots of kisses and cuddles.</span></span><span class=\"mind-eyes-right tooltip\">4. contented <span class=\"tooltiptext top\">satisfied<hr/>After a nice walk and a good meal, David felt very contented.</span></span></div>","time_elapsed":12733,"words":["interested","joking","affectionate","contented"],"trial_index":2,"pic":28,"userId":"524d2272-d17f-42aa-b335-772a7ac10972","dateTime":"2021-11-17T05:29:57.671Z","isRelevant":true},{"internal_node_id":"0.0-0.0-3.0-0.1","rt":7310,"response":"4","trial_type":"html-keyboard-response","stimulus":"<div class=\"mind-eyes-words\"><span class=\"mind-eyes-left tooltip\">1. irritated <span class=\"tooltiptext bottom\">exasperated, annoyed<hr/>Frances was irritated by all the junk mail she received.</span></span><span class=\"mind-eyes-right tooltip\">2. disappointed <span class=\"tooltiptext bottom\">displeased, disgruntled<hr/>Manchester United fans were disappointed not to win the Championship.</span></span></div><img src=\"https://d3vowlh1lzbs4j.cloudfront.net/eye/14.jpg\"/><div class=\"words\"><span class=\"mind-eyes-left tooltip\">3. depressed <span class=\"tooltiptext top\">miserable<hr/>George was depressed when he didn’t receive any birthday cards.</span></span><span class=\"mind-eyes-right tooltip\">4. accusing <span class=\"tooltiptext top\">blaming<hr/>The policeman was accusing the man of stealing a wallet.</span></span></div>","time_elapsed":20046,"words":["irritated","disappointed","depressed","accusing"],"trial_index":3,"pic":14,"userId":"524d2272-d17f-42aa-b335-772a7ac10972","dateTime":"2021-11-17T05:30:04.984Z","isRelevant":true},{"internal_node_id":"0.0-0.0-3.0-0.2","rt":16637,"response":"4","trial_type":"html-keyboard-response","stimulus":"<div class=\"mind-eyes-words\"><span class=\"mind-eyes-left tooltip\">1. terrified <span class=\"tooltiptext bottom\">alarmed, fearful<hr/>The boy was terrified when he thought he saw a ghost.</span></span><span class=\"mind-eyes-right tooltip\">2. upset <span class=\"tooltiptext bottom\">agitated, worried, uneasy<hr/>The man was very upset when his mother died.</span></span></div><img src=\"https://d3vowlh1lzbs4j.cloudfront.net/eye/2.jpg\"/><div class=\"words\"><span class=\"mind-eyes-left tooltip\">3. arrogant <span class=\"tooltiptext top\">conceited, self-important, having a big opinion of oneself<hr/>The arrogant man thought he knew more about politics than everyone else in the room.</span></span><span class=\"mind-eyes-right tooltip\">4. annoyed <span class=\"tooltiptext top\">irritated, displeased<hr/>Jack was annoyed when he found out he had missed the last bus home.</span></span></div>","time_elapsed":36686,"words":["terrified","upset","arrogant","annoyed"],"trial_index":4,"pic":2,"userId":"524d2272-d17f-42aa-b335-772a7ac10972","dateTime":"2021-11-17T05:30:21.624Z","isRelevant":true},{"internal_node_id":"0.0-0.0-3.0-0.3","rt":6958,"response":"2","trial_type":"html-keyboard-response","stimulus":"<div class=\"mind-eyes-words\"><span class=\"mind-eyes-left tooltip\">1. aghast <span class=\"tooltiptext bottom\">horrified, astonished, alarmed<hr/>Jane was aghast when she discovered her house had been burgled.</span></span><span class=\"mind-eyes-right tooltip\">2. fantasizing <span class=\"tooltiptext bottom\">daydreaming<hr/>Emma was fantasizing about being a film star.</span></span></div><img src=\"https://d3vowlh1lzbs4j.cloudfront.net/eye/6.jpg\"/><div class=\"words\"><span class=\"mind-eyes-left tooltip\">3. impatient <span class=\"tooltiptext top\">restless, wanting something to happen soon<hr/>Jane grew increasingly impatient as she waited for her friend who was already 20 minutes late.</span></span><span class=\"mind-eyes-right tooltip\">4. alarmed <span class=\"tooltiptext top\">fearful, worried, filled with anxiety<hr/>Claire was alarmed when she thought she was being followed home.</span></span></div>","time_elapsed":43646,"words":["aghast","fantasizing","impatient","alarmed"],"trial_index":5,"pic":6,"userId":"524d2272-d17f-42aa-b335-772a7ac10972","dateTime":"2021-11-17T05:30:28.584Z","isRelevant":true},{"internal_node_id":"0.0-0.0-3.0-0.4","rt":3926,"response":"2","trial_type":"html-keyboard-response","stimulus":"<div class=\"mind-eyes-words\"><span class=\"mind-eyes-left tooltip\">1. grateful <span class=\"tooltiptext bottom\">thankful<hr/>Kelly was very grateful for the kindness shown by the stranger.</span></span><span class=\"mind-eyes-right tooltip\">2. flirtatious <span class=\"tooltiptext bottom\">brazen, saucy, teasing, playful<hr/>Connie was accused of being flirtatious when she winked at a stranger at a party.</span></span></div><img src=\"https://d3vowlh1lzbs4j.cloudfront.net/eye/30.jpg\"/><div class=\"words\"><span class=\"mind-eyes-left tooltip\">3. hostile <span class=\"tooltiptext top\">unfriendly<hr/>The two neighbours were hostile towards each other because of an argument about loud music.</span></span><span class=\"mind-eyes-right tooltip\">4. disappointed <span class=\"tooltiptext top\">displeased, disgruntled<hr/>Manchester United fans were disappointed not to win the Championship.</span></span></div>","time_elapsed":47575,"words":["grateful","flirtatious","hostile","disappointed"],"trial_index":6,"pic":30,"userId":"524d2272-d17f-42aa-b335-772a7ac10972","dateTime":"2021-11-17T05:30:32.513Z","isRelevant":true},{"internal_node_id":"0.0-0.0-3.0-0.5","rt":12575,"response":"1","trial_type":"html-keyboard-response","stimulus":"<div class=\"mind-eyes-words\"><span class=\"mind-eyes-left tooltip\">1. pensive <span class=\"tooltiptext bottom\">thinking about something slightly worrying<hr/>Susie looked pensive on the way to meeting her boyfriend’s parents for the first time.</span></span><span class=\"mind-eyes-right tooltip\">2. irritated <span class=\"tooltiptext bottom\">exasperated, annoyed<hr/>Frances was irritated by all the junk mail she received.</span></span></div><img src=\"https://d3vowlh1lzbs4j.cloudfront.net/eye/24.jpg\"/><div class=\"words\"><span class=\"mind-eyes-left tooltip\">3. excited <span class=\"tooltiptext top\">very enthusiastic and eager<hr/>They were excited about the prospect.</span></span><span class=\"mind-eyes-right tooltip\">4. hostile <span class=\"tooltiptext top\">unfriendly<hr/>The two neighbours were hostile towards each other because of an argument about loud music.</span></span></div>","time_elapsed":60150,"words":["pensive","irritated","excited","hostile"],"trial_index":7,"pic":24,"userId":"524d2272-d17f-42aa-b335-772a7ac10972","dateTime":"2021-11-17T05:30:45.088Z","isRelevant":true},{"ua":"Mozilla/5.0 (Macintosh; Intel Mac OS X 10.15; rv:94.0) Gecko/20100101 Firefox/94.0","userId":"524d2272-d17f-42aa-b335-772a7ac10972","dateTime":"2021-11-17T05:30:45.090Z","isRelevant":false},{"taskStarted":true,"userId":"118a2724-6420-41e6-af9f-42da893ea092","dateTime":"2021-11-07T01:38:11.659Z","isRelevant":false},{"internal_node_id":"0.0-0.0-1.0","rt":1671.6000000089407,"response":" ","trial_type":"html-keyboard-response","stimulus":"<h2>Reading the Mind in the Eyes Task</h2> <p> You are about to start a new task. In this task, you will be asked to view a series of photographs and to describe what the person in the picture is thinking or feeling. </p> <em>Press the space bar to continue</em>","time_elapsed":1675,"trial_index":0,"userId":"118a2724-6420-41e6-af9f-42da893ea092","dateTime":"2021-11-07T01:38:13.333Z","isRelevant":false},{"internal_node_id":"0.0-0.0-2.0","rt":659.4000000059605,"response":" ","trial_type":"html-keyboard-response","stimulus":"<p> You will see a series of photographs of eyes. For each set of eyes, type 1, 2, 3 or 4 to choose which word best describes what the person in the picture is thinking or feeling. You may feel that more than one word is applicable but please choose just one word, the word which you consider to be most suitable. Before making your choice, make sure that you have read all 4 words. You should try to do the task as quickly as possible. If you do not know what a word means, place your mouse over it and you will see its definition. </p> <em>Press the space bar to continue</em>","time_elapsed":2337,"trial_index":1,"userId":"118a2724-6420-41e6-af9f-42da893ea092","dateTime":"2021-11-07T01:38:13.996Z","isRelevant":false},{"internal_node_id":"0.0-0.0-3.0-0.0","rt":2063.9000000059605,"isPractice":true,"response":"2","trial_type":"html-keyboard-response","stimulus":"<div class=\"mind-eyes-words\"><span class=\"mind-eyes-left tooltip\">1. jealous <span class=\"tooltiptext bottom\">envious<hr/>Tony was jealous of all the taller, better-looking boys in his class.</span></span><span class=\"mind-eyes-right tooltip\">2. panicked <span class=\"tooltiptext bottom\">distraught, feeling of terror or anxiety<hr/>On waking to find the house on fire, the whole family were panicked.</span></span></div><img src=\"https://d3vowlh1lzbs4j.cloudfront.net/eye/practice.jpg\"/><div class=\"words\"><span class=\"mind-eyes-left tooltip\">3. arrogant <span class=\"tooltiptext top\">conceited, self-important, having a big opinion of oneself<hr/>The arrogant man thought he knew more about politics than everyone else in the room.</span></span><span class=\"mind-eyes-right tooltip\">4. hateful <span class=\"tooltiptext top\">showing intense dislike<hr/>The two sisters were hateful to each other and always fighting.</span></span></div>","time_elapsed":4408,"words":["jealous","panicked","arrogant","hateful"],"trial_index":2,"pic":"practice","userId":"118a2724-6420-41e6-af9f-42da893ea092","dateTime":"2021-11-07T01:38:16.066Z","isRelevant":true},{"internal_node_id":"0.0-0.0-4.0-0.0","rt":2467.2999999970198,"response":"1","trial_type":"html-keyboard-response","stimulus":"<div class=\"mind-eyes-words\"><span class=\"mind-eyes-left tooltip\">1. decisive <span class=\"tooltiptext bottom\">already made your mind up<hr/>Jane looked very decisive as she walked into the polling station.</span></span><span class=\"mind-eyes-right tooltip\">2. amused <span class=\"tooltiptext bottom\">finding something funny<hr/>I was amused by a funny joke someone told me.</span></span></div><img src=\"https://d3vowlh1lzbs4j.cloudfront.net/eye/18.jpg\"/><div class=\"words\"><span class=\"mind-eyes-left tooltip\">3. aghast <span class=\"tooltiptext top\">horrified, astonished, alarmed<hr/>Jane was aghast when she discovered her house had been burgled.</span></span><span class=\"mind-eyes-right tooltip\">4. bored <span class=\"tooltiptext top\">feeling weary because one is unoccupied or lacks interest in one’s current activity<hr/>I am bored today.</span></span></div>","time_elapsed":6879,"words":["decisive","amused","aghast","bored"],"trial_index":3,"pic":18,"userId":"118a2724-6420-41e6-af9f-42da893ea092","dateTime":"2021-11-07T01:38:18.538Z","isRelevant":true},{"internal_node_id":"0.0-0.0-4.0-0.1","rt":2485.2999999970198,"response":"4","trial_type":"html-keyboard-response","stimulus":"<div class=\"mind-eyes-words\"><span class=\"mind-eyes-left tooltip\">1. panicked <span class=\"tooltiptext bottom\">distraught, feeling of terror or anxiety<hr/>On waking to find the house on fire, the whole family were panicked.</span></span><span class=\"mind-eyes-right tooltip\">2. incredulous <span class=\"tooltiptext bottom\">not believing<hr/>Simon was incredulous when he heard that he had won the lottery.</span></span></div><img src=\"https://d3vowlh1lzbs4j.cloudfront.net/eye/25.jpg\"/><div class=\"words\"><span class=\"mind-eyes-left tooltip\">3. despondent <span class=\"tooltiptext top\">gloomy, despairing, without hope<hr/>Gary was despondent when he did not get the job he wanted.</span></span><span class=\"mind-eyes-right tooltip\">4. interested <span class=\"tooltiptext top\">inquiring, curious<hr/>After seeing Jurassic Park, Huge grew very interested in dinosaurs.</span></span></div>","time_elapsed":9369,"words":["panicked","incredulous","despondent","interested"],"trial_index":4,"pic":25,"userId":"118a2724-6420-41e6-af9f-42da893ea092","dateTime":"2021-11-07T01:38:21.028Z","isRelevant":true},{"internal_node_id":"0.0-0.0-4.0-0.2","rt":1516.2999999970198,"response":"2","trial_type":"html-keyboard-response","stimulus":"<div class=\"mind-eyes-words\"><span class=\"mind-eyes-left tooltip\">1. ashamed <span class=\"tooltiptext bottom\">overcome with shame or guilt<hr/>The boy felt ashamed when his mother discovered him stealing money from her purse.</span></span><span class=\"mind-eyes-right tooltip\">2. confident <span class=\"tooltiptext bottom\">self-assured, believing in oneself<hr/>The tennis player was feeling very confident about winning his match.</span></span></div><img src=\"https://d3vowlh1lzbs4j.cloudfront.net/eye/31.jpg\"/><div class=\"words\"><span class=\"mind-eyes-left tooltip\">3. joking <span class=\"tooltiptext top\">being funny, playful<hr/>Gary was always joking with his friends.</span></span><span class=\"mind-eyes-right tooltip\">4. dispirited <span class=\"tooltiptext top\">glum, miserable, low<hr/>Adam was dispirited when he failed his exams.</span></span></div>","time_elapsed":10894,"words":["ashamed","confident","joking","dispirited"],"trial_index":5,"pic":31,"userId":"118a2724-6420-41e6-af9f-42da893ea092","dateTime":"2021-11-07T01:38:22.553Z","isRelevant":true},{"internal_node_id":"0.0-0.0-4.0-0.3","rt":2360.3999999910593,"response":"1","trial_type":"html-keyboard-response","stimulus":"<div class=\"mind-eyes-words\"><span class=\"mind-eyes-left tooltip\">1. indifferent <span class=\"tooltiptext bottom\">disinterested, unresponsive, don’t care<hr/>Terry was completely indifferent as to whether they went to the cinema or the pub.</span></span><span class=\"mind-eyes-right tooltip\">2. embarrassed <span class=\"tooltiptext bottom\">ashamed<hr/>After forgetting a colleague’s name, Jenny felt very embarrassed.</span></span></div><img src=\"https://d3vowlh1lzbs4j.cloudfront.net/eye/12.jpg\"/><div class=\"words\"><span class=\"mind-eyes-left tooltip\">3. sceptical <span class=\"tooltiptext top\">doubtful, suspicious, mistrusting<hr/>Patrick looked sceptical as someone read out his horoscope to him.</span></span><span class=\"mind-eyes-right tooltip\">4. dispirited <span class=\"tooltiptext top\">glum, miserable, low<hr/>Adam was dispirited when he failed his exams.</span></span></div>","time_elapsed":13259,"words":["indifferent","embarrassed","sceptical","dispirited"],"trial_index":6,"pic":12,"userId":"118a2724-6420-41e6-af9f-42da893ea092","dateTime":"2021-11-07T01:38:24.917Z","isRelevant":true},{"internal_node_id":"0.0-0.0-4.0-0.4","rt":2378.0999999940395,"response":"4","trial_type":"html-keyboard-response","stimulus":"<div class=\"mind-eyes-words\"><span class=\"mind-eyes-left tooltip\">1. puzzled <span class=\"tooltiptext bottom\">perplexed, bewildered, confused<hr/>After doing the crossword for an hour, June was still puzzled by one clue.</span></span><span class=\"mind-eyes-right tooltip\">2. nervous <span class=\"tooltiptext bottom\">apprehensive, tense, worried<hr/>Just before her job interview, Alice felt very nervous.</span></span></div><img src=\"https://d3vowlh1lzbs4j.cloudfront.net/eye/35.jpg\"/><div class=\"words\"><span class=\"mind-eyes-left tooltip\">3. insisting <span class=\"tooltiptext top\">demanding, persisting, maintaining<hr/>After a work outing, Frank was insisting he paid the bill for everyone.</span></span><span class=\"mind-eyes-right tooltip\">4. contemplative <span class=\"tooltiptext top\">reflective, thoughtful, considering<hr/>John was in a contemplative mood on the eve of his 60th birthday.</span></span></div>","time_elapsed":15643,"words":["puzzled","nervous","insisting","contemplative"],"trial_index":7,"pic":35,"userId":"118a2724-6420-41e6-af9f-42da893ea092","dateTime":"2021-11-07T01:38:27.302Z","isRelevant":true},{"internal_node_id":"0.0-0.0-4.0-0.5","rt":2975.9000000059605,"response":"3","trial_type":"html-keyboard-response","stimulus":"<div class=\"mind-eyes-words\"><span class=\"mind-eyes-left tooltip\">1. ashamed <span class=\"tooltiptext bottom\">overcome with shame or guilt<hr/>The boy felt ashamed when his mother discovered him stealing money from her purse.</span></span><span class=\"mind-eyes-right tooltip\">2. nervous <span class=\"tooltiptext bottom\">apprehensive, tense, worried<hr/>Just before her job interview, Alice felt very nervous.</span></span></div><img src=\"https://d3vowlh1lzbs4j.cloudfront.net/eye/36.jpg\"/><div class=\"words\"><span class=\"mind-eyes-left tooltip\">3. suspicious <span class=\"tooltiptext top\">disbelieving, suspecting, doubting<hr/>After Sam had lost his wallet for the second time at work, he grew suspicious of one of his colleagues.</span></span><span class=\"mind-eyes-right tooltip\">4. indecisive <span class=\"tooltiptext top\">unsure, hesitant, unable to make your mind up<hr/>Tammy was so indecisive that she couldn’t even decide what to have for lunch.</span></span></div>","time_elapsed":18624,"words":["ashamed","nervous","suspicious","indecisive"],"trial_index":8,"pic":36,"userId":"118a2724-6420-41e6-af9f-42da893ea092","dateTime":"2021-11-07T01:38:30.283Z","isRelevant":true},{"ua":"Mozilla/5.0 (Macintosh; Intel Mac OS X 10_15_7) AppleWebKit/537.36 (KHTML, like Gecko) Chrome/95.0.4638.54 Safari/537.36","userId":"118a2724-6420-41e6-af9f-42da893ea092","dateTime":"2021-11-07T01:38:30.286Z","isRelevant":false},{"taskStarted":true,"userId":"118a2724-6420-41e6-af9f-42da893ea092","dateTime":"2021-11-09T06:42:32.943Z","isRelevant":false},{"trial_index":0,"internal_node_id":"0.0-0.0-0.0-0.0","success":true,"trial_type":"fullscreen","time_elapsed":15152,"userId":"118a2724-6420-41e6-af9f-42da893ea092","dateTime":"2021-11-09T06:42:48.095Z","isRelevant":false},{"internal_node_id":"0.0-0.0-1.0","rt":1192,"response":" ","trial_type":"html-keyboard-response","stimulus":"<h2>Reading the Mind in the Eyes Task</h2> <p> You are about to start a new task. In this task, you will be asked to view a series of photographs and to describe what the person in the picture is thinking or feeling. </p> <em>Press the space bar to continue</em>","time_elapsed":16362,"trial_index":1,"userId":"118a2724-6420-41e6-af9f-42da893ea092","dateTime":"2021-11-09T06:42:49.305Z","isRelevant":false},{"internal_node_id":"0.0-0.0-2.0","rt":608.7999999821186,"response":" ","trial_type":"html-keyboard-response","stimulus":"<p> You will see a series of photographs of eyes. For each set of eyes, type 1, 2, 3 or 4 to choose which word best describes what the person in the picture is thinking or feeling. You may feel that more than one word is applicable but please choose just one word, the word which you consider to be most suitable. Before making your choice, make sure that you have read all 4 words. You should try to do the task as quickly as possible. If you do not know what a word means, place your mouse over it and you will see its definition. </p> <em>Press the space bar to continue</em>","time_elapsed":16976,"trial_index":2,"userId":"118a2724-6420-41e6-af9f-42da893ea092","dateTime":"2021-11-09T06:42:49.918Z","isRelevant":false},{"internal_node_id":"0.0-0.0-3.0-0.0","rt":2114,"isPractice":true,"response":"2","trial_type":"html-keyboard-response","stimulus":"<div class=\"mind-eyes-words\"><span class=\"mind-eyes-left tooltip\">1. jealous <span class=\"tooltiptext bottom\">envious<hr/>Tony was jealous of all the taller, better-looking boys in his class.</span></span><span class=\"mind-eyes-right tooltip\">2. panicked <span class=\"tooltiptext bottom\">distraught, feeling of terror or anxiety<hr/>On waking to find the house on fire, the whole family were panicked.</span></span></div><img src=\"https://d3vowlh1lzbs4j.cloudfront.net/eye/practice.jpg\"/><div class=\"words\"><span class=\"mind-eyes-left tooltip\">3. arrogant <span class=\"tooltiptext top\">conceited, self-important, having a big opinion of oneself<hr/>The arrogant man thought he knew more about politics than everyone else in the room.</span></span><span class=\"mind-eyes-right tooltip\">4. hateful <span class=\"tooltiptext top\">showing intense dislike<hr/>The two sisters were hateful to each other and always fighting.</span></span></div>","time_elapsed":19099,"words":["jealous","panicked","arrogant","hateful"],"trial_index":3,"pic":"practice","userId":"118a2724-6420-41e6-af9f-42da893ea092","dateTime":"2021-11-09T06:42:52.042Z","isRelevant":true},{"internal_node_id":"0.0-0.0-4.0-0.0","rt":1605.300000011921,"response":"1","trial_type":"html-keyboard-response","stimulus":"<div class=\"mind-eyes-words\"><span class=\"mind-eyes-left tooltip\">1. decisive <span class=\"tooltiptext bottom\">already made your mind up<hr/>Jane looked very decisive as she walked into the polling station.</span></span><span class=\"mind-eyes-right tooltip\">2. amused <span class=\"tooltiptext bottom\">finding something funny<hr/>I was amused by a funny joke someone told me.</span></span></div><img src=\"https://d3vowlh1lzbs4j.cloudfront.net/eye/18.jpg\"/><div class=\"words\"><span class=\"mind-eyes-left tooltip\">3. aghast <span class=\"tooltiptext top\">horrified, astonished, alarmed<hr/>Jane was aghast when she discovered her house had been burgled.</span></span><span class=\"mind-eyes-right tooltip\">4. bored <span class=\"tooltiptext top\">feeling weary because one is unoccupied or lacks interest in one’s current activity<hr/>I am bored today.</span></span></div>","time_elapsed":20708,"words":["decisive","amused","aghast","bored"],"trial_index":4,"pic":18,"userId":"118a2724-6420-41e6-af9f-42da893ea092","dateTime":"2021-11-09T06:42:53.651Z","isRelevant":true},{"internal_node_id":"0.0-0.0-4.0-0.1","rt":1499.7999999821186,"response":"2","trial_type":"html-keyboard-response","stimulus":"<div class=\"mind-eyes-words\"><span class=\"mind-eyes-left tooltip\">1. ashamed <span class=\"tooltiptext bottom\">overcome with shame or guilt<hr/>The boy felt ashamed when his mother discovered him stealing money from her purse.</span></span><span class=\"mind-eyes-right tooltip\">2. confident <span class=\"tooltiptext bottom\">self-assured, believing in oneself<hr/>The tennis player was feeling very confident about winning his match.</span></span></div><img src=\"https://d3vowlh1lzbs4j.cloudfront.net/eye/31.jpg\"/><div class=\"words\"><span class=\"mind-eyes-left tooltip\">3. joking <span class=\"tooltiptext top\">being funny, playful<hr/>Gary was always joking with his friends.</span></span><span class=\"mind-eyes-right tooltip\">4. dispirited <span class=\"tooltiptext top\">glum, miserable, low<hr/>Adam was dispirited when he failed his exams.</span></span></div>","time_elapsed":22213,"words":["ashamed","confident","joking","dispirited"],"trial_index":5,"pic":31,"userId":"118a2724-6420-41e6-af9f-42da893ea092","dateTime":"2021-11-09T06:42:55.155Z","isRelevant":true},{"internal_node_id":"0.0-0.0-4.0-0.2","rt":2136.7999999821186,"response":"2","trial_type":"html-keyboard-response","stimulus":"<div class=\"mind-eyes-words\"><span class=\"mind-eyes-left tooltip\">1. puzzled <span class=\"tooltiptext bottom\">perplexed, bewildered, confused<hr/>After doing the crossword for an hour, June was still puzzled by one clue.</span></span><span class=\"mind-eyes-right tooltip\">2. nervous <span class=\"tooltiptext bottom\">apprehensive, tense, worried<hr/>Just before her job interview, Alice felt very nervous.</span></span></div><img src=\"https://d3vowlh1lzbs4j.cloudfront.net/eye/35.jpg\"/><div class=\"words\"><span class=\"mind-eyes-left tooltip\">3. insisting <span class=\"tooltiptext top\">demanding, persisting, maintaining<hr/>After a work outing, Frank was insisting he paid the bill for everyone.</span></span><span class=\"mind-eyes-right tooltip\">4. contemplative <span class=\"tooltiptext top\">reflective, thoughtful, considering<hr/>John was in a contemplative mood on the eve of his 60th birthday.</span></span></div>","time_elapsed":24353,"words":["puzzled","nervous","insisting","contemplative"],"trial_index":6,"pic":35,"userId":"118a2724-6420-41e6-af9f-42da893ea092","dateTime":"2021-11-09T06:42:57.296Z","isRelevant":true},{"internal_node_id":"0.0-0.0-4.0-0.3","rt":2082.9000000059605,"response":"3","trial_type":"html-keyboard-response","stimulus":"<div class=\"mind-eyes-words\"><span class=\"mind-eyes-left tooltip\">1. ashamed <span class=\"tooltiptext bottom\">overcome with shame or guilt<hr/>The boy felt ashamed when his mother discovered him stealing money from her purse.</span></span><span class=\"mind-eyes-right tooltip\">2. nervous <span class=\"tooltiptext bottom\">apprehensive, tense, worried<hr/>Just before her job interview, Alice felt very nervous.</span></span></div><img src=\"https://d3vowlh1lzbs4j.cloudfront.net/eye/36.jpg\"/><div class=\"words\"><span class=\"mind-eyes-left tooltip\">3. suspicious <span class=\"tooltiptext top\">disbelieving, suspecting, doubting<hr/>After Sam had lost his wallet for the second time at work, he grew suspicious of one of his colleagues.</span></span><span class=\"mind-eyes-right tooltip\">4. indecisive <span class=\"tooltiptext top\">unsure, hesitant, unable to make your mind up<hr/>Tammy was so indecisive that she couldn’t even decide what to have for lunch.</span></span></div>","time_elapsed":26438,"words":["ashamed","nervous","suspicious","indecisive"],"trial_index":7,"pic":36,"userId":"118a2724-6420-41e6-af9f-42da893ea092","dateTime":"2021-11-09T06:42:59.381Z","isRelevant":true},{"internal_node_id":"0.0-0.0-4.0-0.4","rt":2805.4000000059605,"response":"4","trial_type":"html-keyboard-response","stimulus":"<div class=\"mind-eyes-words\"><span class=\"mind-eyes-left tooltip\">1. panicked <span class=\"tooltiptext bottom\">distraught, feeling of terror or anxiety<hr/>On waking to find the house on fire, the whole family were panicked.</span></span><span class=\"mind-eyes-right tooltip\">2. incredulous <span class=\"tooltiptext bottom\">not believing<hr/>Simon was incredulous when he heard that he had won the lottery.</span></span></div><img src=\"https://d3vowlh1lzbs4j.cloudfront.net/eye/25.jpg\"/><div class=\"words\"><span class=\"mind-eyes-left tooltip\">3. despondent <span class=\"tooltiptext top\">gloomy, despairing, without hope<hr/>Gary was despondent when he did not get the job he wanted.</span></span><span class=\"mind-eyes-right tooltip\">4. interested <span class=\"tooltiptext top\">inquiring, curious<hr/>After seeing Jurassic Park, Huge grew very interested in dinosaurs.</span></span></div>","time_elapsed":29249,"words":["panicked","incredulous","despondent","interested"],"trial_index":8,"pic":25,"userId":"118a2724-6420-41e6-af9f-42da893ea092","dateTime":"2021-11-09T06:43:02.191Z","isRelevant":true},{"internal_node_id":"0.0-0.0-4.0-0.5","rt":1964,"response":"1","trial_type":"html-keyboard-response","stimulus":"<div class=\"mind-eyes-words\"><span class=\"mind-eyes-left tooltip\">1. indifferent <span class=\"tooltiptext bottom\">disinterested, unresponsive, don’t care<hr/>Terry was completely indifferent as to whether they went to the cinema or the pub.</span></span><span class=\"mind-eyes-right tooltip\">2. embarrassed <span class=\"tooltiptext bottom\">ashamed<hr/>After forgetting a colleague’s name, Jenny felt very embarrassed.</span></span></div><img src=\"https://d3vowlh1lzbs4j.cloudfront.net/eye/12.jpg\"/><div class=\"words\"><span class=\"mind-eyes-left tooltip\">3. sceptical <span class=\"tooltiptext top\">doubtful, suspicious, mistrusting<hr/>Patrick looked sceptical as someone read out his horoscope to him.</span></span><span class=\"mind-eyes-right tooltip\">4. dispirited <span class=\"tooltiptext top\">glum, miserable, low<hr/>Adam was dispirited when he failed his exams.</span></span></div>","time_elapsed":31219,"words":["indifferent","embarrassed","sceptical","dispirited"],"trial_index":9,"pic":12,"userId":"118a2724-6420-41e6-af9f-42da893ea092","dateTime":"2021-11-09T06:43:04.161Z","isRelevant":true},{"ua":"Mozilla/5.0 (Macintosh; Intel Mac OS X 10_15_7) AppleWebKit/537.36 (KHTML, like Gecko) Chrome/95.0.4638.54 Safari/537.36","userId":"118a2724-6420-41e6-af9f-42da893ea092","dateTime":"2021-11-09T06:43:04.162Z","isRelevant":false},{"taskStarted":true,"userId":"118a2724-6420-41e6-af9f-42da893ea092","dateTime":"2021-11-09T18:09:14.998Z","isRelevant":false},{"internal_node_id":"0.0-0.0-1.0","rt":1346,"response":" ","trial_type":"html-keyboard-response","stimulus":"<h2>Reading the Mind in the Eyes Task</h2> <p> You are about to start a new task. In this task, you will be asked to view a series of photographs and to describe what the person in the picture is thinking or feeling. </p> <em>Press the space bar to continue</em>","time_elapsed":1351,"trial_index":0,"userId":"118a2724-6420-41e6-af9f-42da893ea092","dateTime":"2021-11-09T18:09:16.348Z","isRelevant":false},{"internal_node_id":"0.0-0.0-2.0","rt":1283.300000011921,"response":" ","trial_type":"html-keyboard-response","stimulus":"<p> You will see a series of photographs of eyes. For each set of eyes, type 1, 2, 3 or 4 to choose which word best describes what the person in the picture is thinking or feeling. You may feel that more than one word is applicable but please choose just one word, the word which you consider to be most suitable. Before making your choice, make sure that you have read all 4 words. You should try to do the task as quickly as possible. If you do not know what a word means, place your mouse over it and you will see its definition. </p> <em>Press the space bar to continue</em>","time_elapsed":2639,"trial_index":1,"userId":"118a2724-6420-41e6-af9f-42da893ea092","dateTime":"2021-11-09T18:09:17.635Z","isRelevant":false},{"internal_node_id":"0.0-0.0-3.0-0.0","rt":3678.0999999940395,"response":"4","trial_type":"html-keyboard-response","stimulus":"<div class=\"mind-eyes-words\"><span class=\"mind-eyes-left tooltip\">1. cautious <span class=\"tooltiptext bottom\">careful, wary<hr/>Sarah was always a bit cautious when talking to someone she did not know.</span></span><span class=\"mind-eyes-right tooltip\">2. insisting <span class=\"tooltiptext bottom\">demanding, persisting, maintaining<hr/>After a work outing, Frank was insisting he paid the bill for everyone.</span></span></div><img src=\"https://d3vowlh1lzbs4j.cloudfront.net/eye/10.jpg\"/><div class=\"words\"><span class=\"mind-eyes-left tooltip\">3. bored <span class=\"tooltiptext top\">feeling weary because one is unoccupied or lacks interest in one’s current activity<hr/>I am bored today.</span></span><span class=\"mind-eyes-right tooltip\">4. aghast <span class=\"tooltiptext top\">horrified, astonished, alarmed<hr/>Jane was aghast when she discovered her house had been burgled.</span></span></div>","time_elapsed":6326,"words":["cautious","insisting","bored","aghast"],"trial_index":2,"pic":10,"userId":"118a2724-6420-41e6-af9f-42da893ea092","dateTime":"2021-11-09T18:09:21.323Z","isRelevant":true},{"internal_node_id":"0.0-0.0-3.0-0.1","rt":2476,"response":"4","trial_type":"html-keyboard-response","stimulus":"<div class=\"mind-eyes-words\"><span class=\"mind-eyes-left tooltip\">1. impatient <span class=\"tooltiptext bottom\">restless, wanting something to happen soon<hr/>Jane grew increasingly impatient as she waited for her friend who was already 20 minutes late.</span></span><span class=\"mind-eyes-right tooltip\">2. aghast <span class=\"tooltiptext bottom\">horrified, astonished, alarmed<hr/>Jane was aghast when she discovered her house had been burgled.</span></span></div><img src=\"https://d3vowlh1lzbs4j.cloudfront.net/eye/29.jpg\"/><div class=\"words\"><span class=\"mind-eyes-left tooltip\">3. irritated <span class=\"tooltiptext top\">exasperated, annoyed<hr/>Frances was irritated by all the junk mail she received.</span></span><span class=\"mind-eyes-right tooltip\">4. reflective <span class=\"tooltiptext top\">contemplative, thoughtful<hr/>George was in a reflective mood as he thought about what he’d done with his life.</span></span></div>","time_elapsed":8811,"words":["impatient","aghast","irritated","reflective"],"trial_index":3,"pic":29,"userId":"118a2724-6420-41e6-af9f-42da893ea092","dateTime":"2021-11-09T18:09:23.807Z","isRelevant":true},{"internal_node_id":"0.0-0.0-3.0-0.2","rt":2418.699999988079,"response":"1","trial_type":"html-keyboard-response","stimulus":"<div class=\"mind-eyes-words\"><span class=\"mind-eyes-left tooltip\">1. preoccupied <span class=\"tooltiptext bottom\">absorbed, engrossed in one’s own thoughts<hr/>Worrying about her mother’s illness made Debbie preoccupied at work</span></span><span class=\"mind-eyes-right tooltip\">2. grateful <span class=\"tooltiptext bottom\">thankful<hr/>Kelly was very grateful for the kindness shown by the stranger.</span></span></div><img src=\"https://d3vowlh1lzbs4j.cloudfront.net/eye/22.jpg\"/><div class=\"words\"><span class=\"mind-eyes-left tooltip\">3. insisting <span class=\"tooltiptext top\">demanding, persisting, maintaining<hr/>After a work outing, Frank was insisting he paid the bill for everyone.</span></span><span class=\"mind-eyes-right tooltip\">4. imploring <span class=\"tooltiptext top\">begging, pleading<hr/>Nicola looked imploring as she tried to persuade her dad to lend her the car.</span></span></div>","time_elapsed":11234,"words":["preoccupied","grateful","insisting","imploring"],"trial_index":4,"pic":22,"userId":"118a2724-6420-41e6-af9f-42da893ea092","dateTime":"2021-11-09T18:09:26.231Z","isRelevant":true},{"internal_node_id":"0.0-0.0-3.0-0.3","rt":1957.4000000059605,"response":"2","trial_type":"html-keyboard-response","stimulus":"<div class=\"mind-eyes-words\"><span class=\"mind-eyes-left tooltip\">1. joking <span class=\"tooltiptext bottom\">being funny, playful<hr/>Gary was always joking with his friends.</span></span><span class=\"mind-eyes-right tooltip\">2. cautious <span class=\"tooltiptext bottom\">careful, wary<hr/>Sarah was always a bit cautious when talking to someone she did not know.</span></span></div><img src=\"https://d3vowlh1lzbs4j.cloudfront.net/eye/27.jpg\"/><div class=\"words\"><span class=\"mind-eyes-left tooltip\">3. arrogant <span class=\"tooltiptext top\">conceited, self-important, having a big opinion of oneself<hr/>The arrogant man thought he knew more about politics than everyone else in the room.</span></span><span class=\"mind-eyes-right tooltip\">4. reassuring <span class=\"tooltiptext top\">supporting, encouraging, giving someone confidence<hr/>Andy tried to look reassuring as he told his wife that her new dress did suit her.</span></span></div>","time_elapsed":13197,"words":["joking","cautious","arrogant","reassuring"],"trial_index":5,"pic":27,"userId":"118a2724-6420-41e6-af9f-42da893ea092","dateTime":"2021-11-09T18:09:28.193Z","isRelevant":true},{"internal_node_id":"0.0-0.0-3.0-0.4","rt":6084.5,"response":"3","trial_type":"html-keyboard-response","stimulus":"<div class=\"mind-eyes-words\"><span class=\"mind-eyes-left tooltip\">1. despondent <span class=\"tooltiptext bottom\">gloomy, despairing, without hope<hr/>Gary was despondent when he did not get the job he wanted.</span></span><span class=\"mind-eyes-right tooltip\">2. relieved <span class=\"tooltiptext bottom\">freed from worry or anxiety<hr/>At the restaurant, Ray was relieved to find he had not forgotten his wallet.</span></span></div><img src=\"https://d3vowlh1lzbs4j.cloudfront.net/eye/8.jpg\"/><div class=\"words\"><span class=\"mind-eyes-left tooltip\">3. shy <span class=\"tooltiptext top\">being reserved or having or showing nervousness or timidity in the company of other people<hr/>I was pretty shy at school.</span></span><span class=\"mind-eyes-right tooltip\">4. excited <span class=\"tooltiptext top\">very enthusiastic and eager<hr/>They were excited about the prospect.</span></span></div>","time_elapsed":19285,"words":["despondent","relieved","shy","excited"],"trial_index":6,"pic":8,"userId":"118a2724-6420-41e6-af9f-42da893ea092","dateTime":"2021-11-09T18:09:34.282Z","isRelevant":true},{"internal_node_id":"0.0-0.0-3.0-0.5","rt":2257.199999988079,"response":"3","trial_type":"html-keyboard-response","stimulus":"<div class=\"mind-eyes-words\"><span class=\"mind-eyes-left tooltip\">1. doubtful <span class=\"tooltiptext bottom\">dubious, suspicious, not really believing<hr/>Mary was doubtful that her son was telling the truth.</span></span><span class=\"mind-eyes-right tooltip\">2. affectionate <span class=\"tooltiptext bottom\">showing fondness toward someone<hr/>Most mothers are affectionate to their babies by giving them lots of kisses and cuddles.</span></span></div><img src=\"https://d3vowlh1lzbs4j.cloudfront.net/eye/17.jpg\"/><div class=\"words\"><span class=\"mind-eyes-left tooltip\">3. playful <span class=\"tooltiptext top\">full of high spirits and fun<hr/>Neil was feeling playful at his birthday party.</span></span><span class=\"mind-eyes-right tooltip\">4. aghast <span class=\"tooltiptext top\">horrified, astonished, alarmed<hr/>Jane was aghast when she discovered her house had been burgled.</span></span></div>","time_elapsed":21548,"words":["doubtful","affectionate","playful","aghast"],"trial_index":7,"pic":17,"userId":"118a2724-6420-41e6-af9f-42da893ea092","dateTime":"2021-11-09T18:09:36.545Z","isRelevant":true},{"ua":"Mozilla/5.0 (Macintosh; Intel Mac OS X 10_15_7) AppleWebKit/537.36 (KHTML, like Gecko) Chrome/95.0.4638.54 Safari/537.36","userId":"118a2724-6420-41e6-af9f-42da893ea092","dateTime":"2021-11-09T18:09:36.547Z","isRelevant":false},{"taskStarted":true,"userId":"b07d920b-a11a-422a-a359-694608c3cd00","dateTime":"2021-11-16T18:35:20.401Z","isRelevant":false},{"internal_node_id":"0.0-0.0-1.0","rt":10084.399999976158,"response":" ","trial_type":"html-keyboard-response","stimulus":"<h2>Reading the Mind in the Eyes Task</h2> <p> You are about to start a new task. In this task, you will be asked to view a series of photographs and to describe what the person in the picture is thinking or feeling. </p> <em>Press the space bar to continue</em>","time_elapsed":10085,"trial_index":0,"userId":"b07d920b-a11a-422a-a359-694608c3cd00","dateTime":"2021-11-16T18:35:30.486Z","isRelevant":false},{"internal_node_id":"0.0-0.0-2.0","rt":16394.600000023842,"response":" ","trial_type":"html-keyboard-response","stimulus":"<p> You will see a series of photographs of eyes. For each set of eyes, type 1, 2, 3 or 4 to choose which word best describes what the person in the picture is thinking or feeling. You may feel that more than one word is applicable but please choose just one word, the word which you consider to be most suitable. Before making your choice, make sure that you have read all 4 words. You should try to do the task as quickly as possible. If you do not know what a word means, place your mouse over it and you will see its definition. </p> <em>Press the space bar to continue</em>","time_elapsed":26480,"trial_index":1,"userId":"b07d920b-a11a-422a-a359-694608c3cd00","dateTime":"2021-11-16T18:35:46.881Z","isRelevant":false},{"internal_node_id":"0.0-0.0-3.0-0.0","rt":43404,"isPractice":true,"response":"1","trial_type":"html-keyboard-response","stimulus":"<div class=\"mind-eyes-words\"><span class=\"mind-eyes-left tooltip\">1. jealous <span class=\"tooltiptext bottom\">envious<hr/>Tony was jealous of all the taller, better-looking boys in his class.</span></span><span class=\"mind-eyes-right tooltip\">2. panicked <span class=\"tooltiptext bottom\">distraught, feeling of terror or anxiety<hr/>On waking to find the house on fire, the whole family were panicked.</span></span></div><img src=\"https://d3vowlh1lzbs4j.cloudfront.net/eye/practice.jpg\"/><div class=\"words\"><span class=\"mind-eyes-left tooltip\">3. arrogant <span class=\"tooltiptext top\">conceited, self-important, having a big opinion of oneself<hr/>The arrogant man thought he knew more about politics than everyone else in the room.</span></span><span class=\"mind-eyes-right tooltip\">4. hateful <span class=\"tooltiptext top\">showing intense dislike<hr/>The two sisters were hateful to each other and always fighting.</span></span></div>","time_elapsed":69885,"words":["jealous","panicked","arrogant","hateful"],"trial_index":2,"pic":"practice","userId":"b07d920b-a11a-422a-a359-694608c3cd00","dateTime":"2021-11-16T18:36:30.286Z","isRelevant":true},{"internal_node_id":"0.0-0.0-4.0-0.0","rt":9599.100000023842,"response":"3","trial_type":"html-keyboard-response","stimulus":"<div class=\"mind-eyes-words\"><span class=\"mind-eyes-left tooltip\">1. ashamed <span class=\"tooltiptext bottom\">overcome with shame or guilt<hr/>The boy felt ashamed when his mother discovered him stealing money from her purse.</span></span><span class=\"mind-eyes-right tooltip\">2. nervous <span class=\"tooltiptext bottom\">apprehensive, tense, worried<hr/>Just before her job interview, Alice felt very nervous.</span></span></div><img src=\"https://d3vowlh1lzbs4j.cloudfront.net/eye/36.jpg\"/><div class=\"words\"><span class=\"mind-eyes-left tooltip\">3. suspicious <span class=\"tooltiptext top\">disbelieving, suspecting, doubting<hr/>After Sam had lost his wallet for the second time at work, he grew suspicious of one of his colleagues.</span></span><span class=\"mind-eyes-right tooltip\">4. indecisive <span class=\"tooltiptext top\">unsure, hesitant, unable to make your mind up<hr/>Tammy was so indecisive that she couldn’t even decide what to have for lunch.</span></span></div>","time_elapsed":79485,"words":["ashamed","nervous","suspicious","indecisive"],"trial_index":3,"pic":36,"userId":"b07d920b-a11a-422a-a359-694608c3cd00","dateTime":"2021-11-16T18:36:39.886Z","isRelevant":true},{"internal_node_id":"0.0-0.0-4.0-0.1","rt":13301.300000071526,"response":"1","trial_type":"html-keyboard-response","stimulus":"<div class=\"mind-eyes-words\"><span class=\"mind-eyes-left tooltip\">1. decisive <span class=\"tooltiptext bottom\">already made your mind up<hr/>Jane looked very decisive as she walked into the polling station.</span></span><span class=\"mind-eyes-right tooltip\">2. amused <span class=\"tooltiptext bottom\">finding something funny<hr/>I was amused by a funny joke someone told me.</span></span></div><img src=\"https://d3vowlh1lzbs4j.cloudfront.net/eye/18.jpg\"/><div class=\"words\"><span class=\"mind-eyes-left tooltip\">3. aghast <span class=\"tooltiptext top\">horrified, astonished, alarmed<hr/>Jane was aghast when she discovered her house had been burgled.</span></span><span class=\"mind-eyes-right tooltip\">4. bored <span class=\"tooltiptext top\">feeling weary because one is unoccupied or lacks interest in one’s current activity<hr/>I am bored today.</span></span></div>","time_elapsed":92789,"words":["decisive","amused","aghast","bored"],"trial_index":4,"pic":18,"userId":"b07d920b-a11a-422a-a359-694608c3cd00","dateTime":"2021-11-16T18:36:53.190Z","isRelevant":true},{"internal_node_id":"0.0-0.0-4.0-0.2","rt":6836.399999976158,"response":"4","trial_type":"html-keyboard-response","stimulus":"<div class=\"mind-eyes-words\"><span class=\"mind-eyes-left tooltip\">1. panicked <span class=\"tooltiptext bottom\">distraught, feeling of terror or anxiety<hr/>On waking to find the house on fire, the whole family were panicked.</span></span><span class=\"mind-eyes-right tooltip\">2. incredulous <span class=\"tooltiptext bottom\">not believing<hr/>Simon was incredulous when he heard that he had won the lottery.</span></span></div><img src=\"https://d3vowlh1lzbs4j.cloudfront.net/eye/25.jpg\"/><div class=\"words\"><span class=\"mind-eyes-left tooltip\">3. despondent <span class=\"tooltiptext top\">gloomy, despairing, without hope<hr/>Gary was despondent when he did not get the job he wanted.</span></span><span class=\"mind-eyes-right tooltip\">4. interested <span class=\"tooltiptext top\">inquiring, curious<hr/>After seeing Jurassic Park, Huge grew very interested in dinosaurs.</span></span></div>","time_elapsed":99627,"words":["panicked","incredulous","despondent","interested"],"trial_index":5,"pic":25,"userId":"b07d920b-a11a-422a-a359-694608c3cd00","dateTime":"2021-11-16T18:37:00.028Z","isRelevant":true},{"internal_node_id":"0.0-0.0-4.0-0.3","rt":13213,"response":"4","trial_type":"html-keyboard-response","stimulus":"<div class=\"mind-eyes-words\"><span class=\"mind-eyes-left tooltip\">1. puzzled <span class=\"tooltiptext bottom\">perplexed, bewildered, confused<hr/>After doing the crossword for an hour, June was still puzzled by one clue.</span></span><span class=\"mind-eyes-right tooltip\">2. nervous <span class=\"tooltiptext bottom\">apprehensive, tense, worried<hr/>Just before her job interview, Alice felt very nervous.</span></span></div><img src=\"https://d3vowlh1lzbs4j.cloudfront.net/eye/35.jpg\"/><div class=\"words\"><span class=\"mind-eyes-left tooltip\">3. insisting <span class=\"tooltiptext top\">demanding, persisting, maintaining<hr/>After a work outing, Frank was insisting he paid the bill for everyone.</span></span><span class=\"mind-eyes-right tooltip\">4. contemplative <span class=\"tooltiptext top\">reflective, thoughtful, considering<hr/>John was in a contemplative mood on the eve of his 60th birthday.</span></span></div>","time_elapsed":112842,"words":["puzzled","nervous","insisting","contemplative"],"trial_index":6,"pic":35,"userId":"b07d920b-a11a-422a-a359-694608c3cd00","dateTime":"2021-11-16T18:37:13.243Z","isRelevant":true},{"internal_node_id":"0.0-0.0-4.0-0.4","rt":11516.600000023842,"response":"2","trial_type":"html-keyboard-response","stimulus":"<div class=\"mind-eyes-words\"><span class=\"mind-eyes-left tooltip\">1. ashamed <span class=\"tooltiptext bottom\">overcome with shame or guilt<hr/>The boy felt ashamed when his mother discovered him stealing money from her purse.</span></span><span class=\"mind-eyes-right tooltip\">2. confident <span class=\"tooltiptext bottom\">self-assured, believing in oneself<hr/>The tennis player was feeling very confident about winning his match.</span></span></div><img src=\"https://d3vowlh1lzbs4j.cloudfront.net/eye/31.jpg\"/><div class=\"words\"><span class=\"mind-eyes-left tooltip\">3. joking <span class=\"tooltiptext top\">being funny, playful<hr/>Gary was always joking with his friends.</span></span><span class=\"mind-eyes-right tooltip\">4. dispirited <span class=\"tooltiptext top\">glum, miserable, low<hr/>Adam was dispirited when he failed his exams.</span></span></div>","time_elapsed":124432,"words":["ashamed","confident","joking","dispirited"],"trial_index":7,"pic":31,"userId":"b07d920b-a11a-422a-a359-694608c3cd00","dateTime":"2021-11-16T18:37:24.833Z","isRelevant":true},{"internal_node_id":"0.0-0.0-4.0-0.5","rt":4451.700000047684,"response":"3","trial_type":"html-keyboard-response","stimulus":"<div class=\"mind-eyes-words\"><span class=\"mind-eyes-left tooltip\">1. indifferent <span class=\"tooltiptext bottom\">disinterested, unresponsive, don’t care<hr/>Terry was completely indifferent as to whether they went to the cinema or the pub.</span></span><span class=\"mind-eyes-right tooltip\">2. embarrassed <span class=\"tooltiptext bottom\">ashamed<hr/>After forgetting a colleague’s name, Jenny felt very embarrassed.</span></span></div><img src=\"https://d3vowlh1lzbs4j.cloudfront.net/eye/12.jpg\"/><div class=\"words\"><span class=\"mind-eyes-left tooltip\">3. sceptical <span class=\"tooltiptext top\">doubtful, suspicious, mistrusting<hr/>Patrick looked sceptical as someone read out his horoscope to him.</span></span><span class=\"mind-eyes-right tooltip\">4. dispirited <span class=\"tooltiptext top\">glum, miserable, low<hr/>Adam was dispirited when he failed his exams.</span></span></div>","time_elapsed":128886,"words":["indifferent","embarrassed","sceptical","dispirited"],"trial_index":8,"pic":12,"userId":"b07d920b-a11a-422a-a359-694608c3cd00","dateTime":"2021-11-16T18:37:29.287Z","isRelevant":true},{"ua":"Mozilla/5.0 (Macintosh; Intel Mac OS X 10_15_7) AppleWebKit/537.36 (KHTML, like Gecko) Chrome/95.0.4638.54 Safari/537.36","userId":"b07d920b-a11a-422a-a359-694608c3cd00","dateTime":"2021-11-16T18:37:29.288Z","isRelevant":false},{"taskStarted":true,"userId":"b07d920b-a11a-422a-a359-694608c3cd00","dateTime":"2021-11-17T23:32:45.468Z","isRelevant":false},{"internal_node_id":"0.0-0.0-1.0","rt":3953.600000023842,"response":" ","trial_type":"html-keyboard-response","stimulus":"<h2>Reading the Mind in the Eyes Task</h2> <p> You are about to start a new task. In this task, you will be asked to view a series of photographs and to describe what the person in the picture is thinking or feeling. </p> <em>Press the space bar to continue</em>","time_elapsed":3955,"trial_index":0,"userId":"b07d920b-a11a-422a-a359-694608c3cd00","dateTime":"2021-11-17T23:32:49.422Z","isRelevant":false},{"internal_node_id":"0.0-0.0-2.0","rt":2968.5,"response":" ","trial_type":"html-keyboard-response","stimulus":"<p> You will see a series of photographs of eyes. For each set of eyes, type 1, 2, 3 or 4 to choose which word best describes what the person in the picture is thinking or feeling. You may feel that more than one word is applicable but please choose just one word, the word which you consider to be most suitable. Before making your choice, make sure that you have read all 4 words. You should try to do the task as quickly as possible. If you do not know what a word means, place your mouse over it and you will see its definition. </p> <em>Press the space bar to continue</em>","time_elapsed":6925,"trial_index":1,"userId":"b07d920b-a11a-422a-a359-694608c3cd00","dateTime":"2021-11-17T23:32:52.392Z","isRelevant":false},{"internal_node_id":"0.0-0.0-3.0-0.0","rt":21430.899999976158,"response":"1","trial_type":"html-keyboard-response","stimulus":"<div class=\"mind-eyes-words\"><span class=\"mind-eyes-left tooltip\">1. preoccupied <span class=\"tooltiptext bottom\">absorbed, engrossed in one’s own thoughts<hr/>Worrying about her mother’s illness made Debbie preoccupied at work</span></span><span class=\"mind-eyes-right tooltip\">2. grateful <span class=\"tooltiptext bottom\">thankful<hr/>Kelly was very grateful for the kindness shown by the stranger.</span></span></div><img src=\"https://d3vowlh1lzbs4j.cloudfront.net/eye/22.jpg\"/><div class=\"words\"><span class=\"mind-eyes-left tooltip\">3. insisting <span class=\"tooltiptext top\">demanding, persisting, maintaining<hr/>After a work outing, Frank was insisting he paid the bill for everyone.</span></span><span class=\"mind-eyes-right tooltip\">4. imploring <span class=\"tooltiptext top\">begging, pleading<hr/>Nicola looked imploring as she tried to persuade her dad to lend her the car.</span></span></div>","time_elapsed":28358,"words":["preoccupied","grateful","insisting","imploring"],"trial_index":2,"pic":22,"userId":"b07d920b-a11a-422a-a359-694608c3cd00","dateTime":"2021-11-17T23:33:13.825Z","isRelevant":true},{"internal_node_id":"0.0-0.0-3.0-0.1","rt":12343.5,"response":"1","trial_type":"html-keyboard-response","stimulus":"<div class=\"mind-eyes-words\"><span class=\"mind-eyes-left tooltip\">1. despondent <span class=\"tooltiptext bottom\">gloomy, despairing, without hope<hr/>Gary was despondent when he did not get the job he wanted.</span></span><span class=\"mind-e