[{"taskStarted":true,"dateTime":"2021-11-17T05:04:03.546Z","isRelevant":false},{"trial_index":0,"internal_node_id":"0.0-0.0-0.0-0.0","success":true,"trial_type":"fullscreen","time_elapsed":136473,"dateTime":"2021-11-17T05:06:20.016Z","isRelevant":false},{"trial_index":1,"preamble":"Please reflect on the last seven days. <br> What percentage of time would you estimate you were in a good mood, bad mood, and neutral mood? <br> These three states should add up to 100%. ","internal_node_id":"0.0-0.0-1.0","response":[{"field":"Good Mood","value":20},{"field":"Bad Mood","value":30},{"field":"Neutral Mood","value":50}],"trial_type":"percent-sum","time_elapsed":175422,"dateTime":"2021-11-17T05:06:58.965Z","isRelevant":true},{"ua":"Mozilla/5.0 (Macintosh; Intel Mac OS X 10.15; rv:94.0) Gecko/20100101 Firefox/94.0","dateTime":"2021-11-17T05:06:58.967Z","isRelevant":false},{"taskStarted":true,"dateTime":"2021-11-09T18:19:11.460Z","isRelevant":false},{"trial_index":0,"internal_node_id":"0.0-0.0-0.0-0.0","success":true,"trial_type":"fullscreen","time_elapsed":1274,"dateTime":"2021-11-09T18:19:12.732Z","isRelevant":false},{"trial_index":1,"preamble":"Please reflect on the last seven days. <br> What percentage of time would you estimate you were in a good mood, bad mood, and neutral mood? <br> These three states should add up to 100%. ","internal_node_id":"0.0-0.0-1.0","response":[{"field":"Good Mood","value":80},{"field":"Bad Mood","value":5},{"field":"Neutral Mood","value":15}],"trial_type":"percent-sum","time_elapsed":32594,"dateTime":"2021-11-09T18:19:44.051Z","isRelevant":true},{"ua":"Mozilla/5.0 (Macintosh; Intel Mac OS X 10_15_7) AppleWebKit/537.36 (KHTML, like Gecko) Chrome/95.0.4638.69 Safari/537.36","dateTime":"2021-11-09T18:19:44.057Z","isRelevant":false},{"taskStarted":true,"dateTime":"2021-11-15T17:39:17.234Z","isRelevant":false},{"trial_index":0,"internal_node_id":"0.0-0.0-0.0-0.0","success":true,"trial_type":"fullscreen","time_elapsed":14070,"dateTime":"2021-11-15T17:39:31.301Z","isRelevant":false},{"trial_index":1,"preamble":"Please reflect on the last seven days. <br> What percentage of time would you estimate you were in a good mood, bad mood, and neutral mood? <br> These three states should add up to 100%. ","internal_node_id":"0.0-0.0-1.0","response":[{"field":"Good Mood","value":80},{"field":"Bad Mood","value":5},{"field":"Neutral Mood","value":15}],"trial_type":"percent-sum","time_elapsed":104886,"dateTime":"2021-11-15T17:41:02.117Z","isRelevant":true},{"ua":"Mozilla/5.0 (Windows NT 10.0; Win64; x64) AppleWebKit/537.36 (KHTML, like Gecko) Chrome/95.0.4638.69 Safari/537.36 Edg/95.0.1020.53","dateTime":"2021-11-15T17:41:02.149Z","isRelevant":false},{"taskStarted":true,"dateTime":"2021-11-17T01:30:26.757Z","isRelevant":false},{"taskStarted":true,"dateTime":"2021-11-17T19:35:12.677Z","isRelevant":false},{"trial_index":0,"internal_node_id":"0.0-0.0-0.0-0.0","success":true,"trial_type":"fullscreen","time_elapsed":2012,"dateTime":"2021-11-17T19:35:14.685Z","isRelevant":false},{"trial_index":1,"preamble":"Please reflect on the last seven days. <br> What percentage of time would you estimate you were in a good mood, bad mood, and neutral mood? <br> These three states should add up to 100%. ","internal_node_id":"0.0-0.0-1.0","response":[{"field":"Good Mood","value":60},{"field":"Bad Mood","value":30},{"field":"Neutral Mood","value":10}],"trial_type":"percent-sum","time_elapsed":22696,"dateTime":"2021-11-17T19:35:35.370Z","isRelevant":true},{"ua":"Mozilla/5.0 (Windows NT 10.0; Win64; x64) AppleWebKit/537.36 (KHTML, like Gecko) Chrome/95.0.4638.69 Safari/537.36","dateTime":"2021-11-17T19:35:35.376Z","isRelevant":false},{"taskStarted":true,"dateTime":"2021-11-10T21:11:58.123Z","isRelevant":false},{"trial_index":0,"internal_node_id":"0.0-0.0-0.0-0.0","success":true,"trial_type":"fullscreen","time_elapsed":5192,"dateTime":"2021-11-10T21:12:03.314Z","isRelevant":false},{"trial_index":1,"preamble":"Please reflect on the last seven days. <br> What percentage of time would you estimate you were in a good mood, bad mood, and neutral mood? <br> These three states should add up to 100%. ","internal_node_id":"0.0-0.0-1.0","response":[{"field":"Good Mood","value":15},{"field":"Bad Mood","value":20},{"field":"Neutral Mood","value":65}],"trial_type":"percent-sum","time_elapsed":24277,"dateTime":"2021-11-10T21:12:22.399Z","isRelevant":true},{"ua":"Mozilla/5.0 (Windows NT 10.0; Win64; x64) AppleWebKit/537.36 (KHTML, like Gecko) Chrome/95.0.4638.69 Safari/537.36","dateTime":"2021-11-10T21:12:22.402Z","isRelevant":false}]
