[{"taskStarted":true,"userId":"524d2272-d17f-42aa-b335-772a7ac10972","dateTime":"2021-11-17T05:04:03.546Z","isRelevant":false},{"trial_index":0,"internal_node_id":"0.0-0.0-0.0-0.0","success":true,"trial_type":"fullscreen","time_elapsed":136473,"userId":"524d2272-d17f-42aa-b335-772a7ac10972","dateTime":"2021-11-17T05:06:20.016Z","isRelevant":false},{"trial_index":1,"preamble":"Please reflect on the last seven days. <br> What percentage of time would you estimate you were in a good mood, bad mood, and neutral mood? <br> These three states should add up to 100%. ","internal_node_id":"0.0-0.0-1.0","response":[{"field":"Good Mood","value":20},{"field":"Bad Mood","value":30},{"field":"Neutral Mood","value":50}],"trial_type":"percent-sum","time_elapsed":175422,"userId":"524d2272-d17f-42aa-b335-772a7ac10972","dateTime":"2021-11-17T05:06:58.965Z","isRelevant":true},{"ua":"Mozilla/5.0 (Macintosh; Intel Mac OS X 10.15; rv:94.0) Gecko/20100101 Firefox/94.0","userId":"524d2272-d17f-42aa-b335-772a7ac10972","dateTime":"2021-11-17T05:06:58.967Z","isRelevant":false},{"taskStarted":true,"userId":"b07d920b-a11a-422a-a359-694608c3cd00","dateTime":"2021-11-22T21:36:16.631Z","isRelevant":false},{"trial_index":0,"internal_node_id":"0.0-0.0-0.0-0.0","success":true,"trial_type":"fullscreen","time_elapsed":2523,"userId":"b07d920b-a11a-422a-a359-694608c3cd00","dateTime":"2021-11-22T21:36:19.152Z","isRelevant":false},{"trial_index":1,"preamble":"Please reflect on the last seven days. <br> What percentage of time would you estimate you were in a good mood, bad mood, and neutral mood? <br> These three states should add up to 100%. ","internal_node_id":"0.0-0.0-1.0","response":{"Bad Mood":20,"Good Mood":60,"Neutral Mood":20},"trial_type":"percent-sum","time_elapsed":54089,"userId":"b07d920b-a11a-422a-a359-694608c3cd00","dateTime":"2021-11-22T21:37:10.718Z","isRelevant":true},{"ua":"Mozilla/5.0 (Macintosh; Intel Mac OS X 10_15_7) AppleWebKit/537.36 (KHTML, like Gecko) Chrome/95.0.4638.54 Safari/537.36","userId":"b07d920b-a11a-422a-a359-694608c3cd00","dateTime":"2021-11-22T21:37:10.724Z","isRelevant":false},{"taskStarted":true,"userId":"1e7afe8d-bc84-463f-bd6e-c9bd987464be","dateTime":"2021-11-19T20:02:21.275Z","isRelevant":false},{"trial_index":0,"internal_node_id":"0.0-0.0-0.0-0.0","success":true,"trial_type":"fullscreen","time_elapsed":2427,"userId":"1e7afe8d-bc84-463f-bd6e-c9bd987464be","dateTime":"2021-11-19T20:02:23.699Z","isRelevant":false},{"trial_index":1,"preamble":"Please reflect on the last seven days. <br> What percentage of time would you estimate you were in a good mood, bad mood, and neutral mood? <br> These three states should add up to 100%. ","internal_node_id":"0.0-0.0-1.0","response":[{"field":"Good Mood","value":30},{"field":"Bad Mood","value":10},{"field":"Neutral Mood","value":60}],"trial_type":"percent-sum","time_elapsed":38274,"userId":"1e7afe8d-bc84-463f-bd6e-c9bd987464be","dateTime":"2021-11-19T20:02:59.546Z","isRelevant":true},{"ua":"Mozilla/5.0 (Windows NT 10.0; Win64; x64; rv:91.0) Gecko/20100101 Firefox/91.0","userId":"1e7afe8d-bc84-463f-bd6e-c9bd987464be","dateTime":"2021-11-19T20:02:59.552Z","isRelevant":false},{"taskStarted":true,"userId":"165fd106-8a5c-4705-8441-3beaa87dbda4","dateTime":"2021-11-19T01:28:16.353Z","isRelevant":false},{"trial_index":0,"internal_node_id":"0.0-0.0-0.0-0.0","success":true,"trial_type":"fullscreen","time_elapsed":2097317,"userId":"165fd106-8a5c-4705-8441-3beaa87dbda4","dateTime":"2021-11-19T02:03:13.667Z","isRelevant":false},{"trial_index":1,"preamble":"Please reflect on the last seven days. <br> What percentage of time would you estimate you were in a good mood, bad mood, and neutral mood? <br> These three states should add up to 100%. ","internal_node_id":"0.0-0.0-1.0","response":[{"field":"Good Mood","value":40},{"field":"Bad Mood","value":40},{"field":"Neutral Mood","value":20}],"trial_type":"percent-sum","time_elapsed":2123253,"userId":"165fd106-8a5c-4705-8441-3beaa87dbda4","dateTime":"2021-11-19T02:03:39.602Z","isRelevant":true},{"ua":"Mozilla/5.0 (Macintosh; Intel Mac OS X 10_15_7) AppleWebKit/605.1.15 (KHTML, like Gecko) Version/15.0 Safari/605.1.15","userId":"165fd106-8a5c-4705-8441-3beaa87dbda4","dateTime":"2021-11-19T02:03:39.606Z","isRelevant":false},{"taskStarted":true,"userId":"a39c0907-29e6-4c85-9188-b21b04ca17a6","dateTime":"2021-11-09T18:19:11.460Z","isRelevant":false},{"trial_index":0,"internal_node_id":"0.0-0.0-0.0-0.0","success":true,"trial_type":"fullscreen","time_elapsed":1274,"userId":"a39c0907-29e6-4c85-9188-b21b04ca17a6","dateTime":"2021-11-09T18:19:12.732Z","isRelevant":false},{"trial_index":1,"preamble":"Please reflect on the last seven days. <br> What percentage of time would you estimate you were in a good mood, bad mood, and neutral mood? <br> These three states should add up to 100%. ","internal_node_id":"0.0-0.0-1.0","response":[{"field":"Good Mood","value":80},{"field":"Bad Mood","value":5},{"field":"Neutral Mood","value":15}],"trial_type":"percent-sum","time_elapsed":32594,"userId":"a39c0907-29e6-4c85-9188-b21b04ca17a6","dateTime":"2021-11-09T18:19:44.051Z","isRelevant":true},{"ua":"Mozilla/5.0 (Macintosh; Intel Mac OS X 10_15_7) AppleWebKit/537.36 (KHTML, like Gecko) Chrome/95.0.4638.69 Safari/537.36","userId":"a39c0907-29e6-4c85-9188-b21b04ca17a6","dateTime":"2021-11-09T18:19:44.057Z","isRelevant":false},{"taskStarted":true,"userId":"792390ab-56ba-47a8-8c3c-1ea452762f1c","dateTime":"2021-11-15T17:39:17.234Z","isRelevant":false},{"trial_index":0,"internal_node_id":"0.0-0.0-0.0-0.0","success":true,"trial_type":"fullscreen","time_elapsed":14070,"userId":"792390ab-56ba-47a8-8c3c-1ea452762f1c","dateTime":"2021-11-15T17:39:31.301Z","isRelevant":false},{"trial_index":1,"preamble":"Please reflect on the last seven days. <br> What percentage of time would you estimate you were in a good mood, bad mood, and neutral mood? <br> These three states should add up to 100%. ","internal_node_id":"0.0-0.0-1.0","response":[{"field":"Good Mood","value":80},{"field":"Bad Mood","value":5},{"field":"Neutral Mood","value":15}],"trial_type":"percent-sum","time_elapsed":104886,"userId":"792390ab-56ba-47a8-8c3c-1ea452762f1c","dateTime":"2021-11-15T17:41:02.117Z","isRelevant":true},{"ua":"Mozilla/5.0 (Windows NT 10.0; Win64; x64) AppleWebKit/537.36 (KHTML, like Gecko) Chrome/95.0.4638.69 Safari/537.36 Edg/95.0.1020.53","userId":"792390ab-56ba-47a8-8c3c-1ea452762f1c","dateTime":"2021-11-15T17:41:02.149Z","isRelevant":false},{"taskStarted":true,"userId":"6079389f-5d71-4087-9a91-f7e150dec265","dateTime":"2021-11-17T01:30:26.757Z","isRelevant":false},{"taskStarted":true,"userId":"6079389f-5d71-4087-9a91-f7e150dec265","dateTime":"2021-11-17T19:35:12.677Z","isRelevant":false},{"trial_index":0,"internal_node_id":"0.0-0.0-0.0-0.0","success":true,"trial_type":"fullscreen","time_elapsed":2012,"userId":"6079389f-5d71-4087-9a91-f7e150dec265","dateTime":"2021-11-17T19:35:14.685Z","isRelevant":false},{"trial_index":1,"preamble":"Please reflect on the last seven days. <br> What percentage of time would you estimate you were in a good mood, bad mood, and neutral mood? <br> These three states should add up to 100%. ","internal_node_id":"0.0-0.0-1.0","response":[{"field":"Good Mood","value":60},{"field":"Bad Mood","value":30},{"field":"Neutral Mood","value":10}],"trial_type":"percent-sum","time_elapsed":22696,"userId":"6079389f-5d71-4087-9a91-f7e150dec265","dateTime":"2021-11-17T19:35:35.370Z","isRelevant":true},{"ua":"Mozilla/5.0 (Windows NT 10.0; Win64; x64) AppleWebKit/537.36 (KHTML, like Gecko) Chrome/95.0.4638.69 Safari/537.36","userId":"6079389f-5d71-4087-9a91-f7e150dec265","dateTime":"2021-11-17T19:35:35.376Z","isRelevant":false},{"taskStarted":true,"userId":"0d940b94-1baf-43bf-a981-857ddf728e29","dateTime":"2021-11-17T23:22:55.307Z","isRelevant":false},{"trial_index":0,"internal_node_id":"0.0-0.0-0.0-0.0","success":true,"trial_type":"fullscreen","time_elapsed":1229,"userId":"0d940b94-1baf-43bf-a981-857ddf728e29","dateTime":"2021-11-17T23:22:56.525Z","isRelevant":false},{"trial_index":1,"preamble":"Please reflect on the last seven days. <br> What percentage of time would you estimate you were in a good mood, bad mood, and neutral mood? <br> These three states should add up to 100%. ","internal_node_id":"0.0-0.0-1.0","response":[{"field":"Good Mood","value":50},{"field":"Bad Mood","value":10},{"field":"Neutral Mood","value":40}],"trial_type":"percent-sum","time_elapsed":37409,"userId":"0d940b94-1baf-43bf-a981-857ddf728e29","dateTime":"2021-11-17T23:23:32.706Z","isRelevant":true},{"ua":"Mozilla/5.0 (Macintosh; Intel Mac OS X 10.15; rv:94.0) Gecko/20100101 Firefox/94.0","userId":"0d940b94-1baf-43bf-a981-857ddf728e29","dateTime":"2021-11-17T23:23:32.717Z","isRelevant":false},{"taskStarted":true,"userId":"0498cbe0-60ab-45be-984d-ded9dbcdc27d","dateTime":"2021-11-10T21:11:58.123Z","isRelevant":false},{"trial_index":0,"internal_node_id":"0.0-0.0-0.0-0.0","success":true,"trial_type":"fullscreen","time_elapsed":5192,"userId":"0498cbe0-60ab-45be-984d-ded9dbcdc27d","dateTime":"2021-11-10T21:12:03.314Z","isRelevant":false},{"trial_index":1,"preamble":"Please reflect on the last seven days. <br> What percentage of time would you estimate you were in a good mood, bad mood, and neutral mood? <br> These three states should add up to 100%. ","internal_node_id":"0.0-0.0-1.0","response":[{"field":"Good Mood","value":15},{"field":"Bad Mood","value":20},{"field":"Neutral Mood","value":65}],"trial_type":"percent-sum","time_elapsed":24277,"userId":"0498cbe0-60ab-45be-984d-ded9dbcdc27d","dateTime":"2021-11-10T21:12:22.399Z","isRelevant":true},{"ua":"Mozilla/5.0 (Windows NT 10.0; Win64; x64) AppleWebKit/537.36 (KHTML, like Gecko) Chrome/95.0.4638.69 Safari/537.36","userId":"0498cbe0-60ab-45be-984d-ded9dbcdc27d","dateTime":"2021-11-10T21:12:22.402Z","isRelevant":false}]
