[{"taskStarted":true,"dateTime":"2021-11-09T16:19:21.698Z","isRelevant":false},{"trial_index":0,"internal_node_id":"0.0-0.0-0.0-0.0","success":true,"trial_type":"fullscreen","time_elapsed":1472,"dateTime":"2021-11-09T16:19:23.170Z","isRelevant":false},{"internal_node_id":"0.0-0.0-1.0","rt":785,"response":" ","trial_type":"html-keyboard-response","stimulus":"You are now going to complete a training for a task where you will press the space bar for certain numbers. This task is called the n-back. <br> <em>Press the space bar to continue.</em> ","time_elapsed":2259,"trial_index":1,"dateTime":"2021-11-09T16:19:23.958Z","isRelevant":false},{"internal_node_id":"0.0-0.0-2.0","rt":1681,"response":" ","trial_type":"html-keyboard-response","stimulus":"This task consists of three different parts. In each part you will see a series of numbers, one at a time. The numbers will be presented in the center of the screen. <br> <em>Press the space bar to continue.</em> ","time_elapsed":3942,"trial_index":2,"dateTime":"2021-11-09T16:19:25.641Z","isRelevant":false},{"internal_node_id":"0.0-0.0-3.0","rt":374,"response":" ","trial_type":"html-keyboard-response","stimulus":"This first task is super simple - you should just press the space bar whenever you see a '1'. Let's give it a try. <br> <em>Press the space bar to continue.</em> ","time_elapsed":4319,"trial_index":3,"dateTime":"2021-11-09T16:19:26.018Z","isRelevant":false},{"internal_node_id":"0.0-0.0-4.0-0.0","rt":null,"response":null,"trial_type":"html-keyboard-response","stimulus":"<div class=\"n-back-cue-title\">Zero-Back</div> <table class=\"n-back-cue-table\"> <td>6</td> <td class=\"n-back-cue-target n-back-cue-highlight\">1</td> <td>7</td> </table> ","time_elapsed":6322,"trial_index":4,"dateTime":"2021-11-09T16:19:28.020Z","isRelevant":false},{"sequence":["5","9","1"],"internal_node_id":"0.0-0.0-4.0-1.0","trial_type":"n-back","time_elapsed":11726,"missedIndices":[],"trial_index":5,"responses":[{"time_from_start":3884,"index":2,"time_from_focus":283,"correct":true}],"n":0,"dateTime":"2021-11-09T16:19:33.425Z","isRelevant":false},{"internal_node_id":"0.0-0.0-4.0-2.0-0.0","rt":null,"response":null,"trial_type":"html-keyboard-response","stimulus":"<em>Please wait for 7 seconds...</em>","time_elapsed":12730,"trial_index":6,"dateTime":"2021-11-09T16:19:34.428Z","isRelevant":false},{"internal_node_id":"0.0-0.0-4.0-2.0-0.1","rt":null,"response":null,"trial_type":"html-keyboard-response","stimulus":"<em>Please wait for 6 seconds...</em>","time_elapsed":13732,"trial_index":7,"dateTime":"2021-11-09T16:19:35.430Z","isRelevant":false},{"internal_node_id":"0.0-0.0-4.0-2.0-0.2","rt":null,"response":null,"trial_type":"html-keyboard-response","stimulus":"<em>Please wait for 5 seconds...</em>","time_elapsed":14734,"trial_index":8,"dateTime":"2021-11-09T16:19:36.433Z","isRelevant":false},{"internal_node_id":"0.0-0.0-4.0-2.0-0.3","rt":null,"response":null,"trial_type":"html-keyboard-response","stimulus":"<em>Please wait for 4 seconds...</em>","time_elapsed":15735,"trial_index":9,"dateTime":"2021-11-09T16:19:37.433Z","isRelevant":false},{"internal_node_id":"0.0-0.0-4.0-2.0-0.4","rt":null,"response":null,"trial_type":"html-keyboard-response","stimulus":"<em>Please wait for 3 seconds...</em>","time_elapsed":16738,"trial_index":10,"dateTime":"2021-11-09T16:19:38.436Z","isRelevant":false},{"internal_node_id":"0.0-0.0-4.0-2.0-0.5","rt":null,"response":null,"trial_type":"html-keyboard-response","stimulus":"<em>Please wait for 2 seconds...</em>","time_elapsed":17739,"trial_index":11,"dateTime":"2021-11-09T16:19:39.438Z","isRelevant":false},{"internal_node_id":"0.0-0.0-4.0-2.0-0.6","rt":null,"response":null,"trial_type":"html-keyboard-response","stimulus":"<em>Please wait for 1 seconds...</em>","time_elapsed":18741,"trial_index":12,"dateTime":"2021-11-09T16:19:40.439Z","isRelevant":false},{"internal_node_id":"0.0-0.0-5.0","rt":93,"response":" ","trial_type":"html-keyboard-response","stimulus":"That's great! This simple task is called the zero-back task because it doesn't require you to think back and compare any digits. <br> <br> In contrast, the next two tasks do require some memory. Ready to try the next one? <br> <br> <em>Press the space bar to continue.</em> ","time_elapsed":18836,"trial_index":13,"dateTime":"2021-11-09T16:19:40.534Z","isRelevant":false},{"internal_node_id":"0.0-0.0-6.0","rt":94,"response":" ","trial_type":"html-keyboard-response","stimulus":"In the third part of this task, your job is to press the space bar when the number on the screen is the same as the number shown two numbers before it. <br> <br> For example, if you saw \"5, 7, 7\", you would press the space bar when the second 7 is on the screen. Let's give it a try. <br> <br> <em>Press the space bar to continue.</em> ","time_elapsed":18931,"trial_index":14,"dateTime":"2021-11-09T16:19:40.629Z","isRelevant":false},{"internal_node_id":"0.0-0.0-7.0-0.0","rt":null,"response":null,"trial_type":"html-keyboard-response","stimulus":"<div class=\"n-back-cue-title\">One-Back</div> <table class=\"n-back-cue-table\"> <td>5</td> <td class=\"n-back-cue-highlight\">7</td> <td class=\"n-back-cue-target n-back-cue-highlight\">7</td> </table> ","time_elapsed":20932,"trial_index":15,"dateTime":"2021-11-09T16:19:42.630Z","isRelevant":false},{"sequence":["4","7","7"],"internal_node_id":"0.0-0.0-7.0-1.0","trial_type":"n-back","time_elapsed":26334,"missedIndices":[],"trial_index":16,"responses":[{"time_from_start":4026,"index":2,"time_from_focus":426,"correct":true}],"n":1,"dateTime":"2021-11-09T16:19:48.032Z","isRelevant":false},{"internal_node_id":"0.0-0.0-7.0-2.0-0.0","rt":null,"response":null,"trial_type":"html-keyboard-response","stimulus":"<em>Please wait for 7 seconds...</em>","time_elapsed":27335,"trial_index":17,"dateTime":"2021-11-09T16:19:49.033Z","isRelevant":false},{"internal_node_id":"0.0-0.0-7.0-2.0-0.1","rt":null,"response":null,"trial_type":"html-keyboard-response","stimulus":"<em>Please wait for 6 seconds...</em>","time_elapsed":28337,"trial_index":18,"dateTime":"2021-11-09T16:19:50.035Z","isRelevant":false},{"internal_node_id":"0.0-0.0-7.0-2.0-0.2","rt":null,"response":null,"trial_type":"html-keyboard-response","stimulus":"<em>Please wait for 5 seconds...</em>","time_elapsed":29340,"trial_index":19,"dateTime":"2021-11-09T16:19:51.038Z","isRelevant":false},{"internal_node_id":"0.0-0.0-7.0-2.0-0.3","rt":null,"response":null,"trial_type":"html-keyboard-response","stimulus":"<em>Please wait for 4 seconds...</em>","time_elapsed":30341,"trial_index":20,"dateTime":"2021-11-09T16:19:52.040Z","isRelevant":false},{"internal_node_id":"0.0-0.0-7.0-2.0-0.4","rt":null,"response":null,"trial_type":"html-keyboard-response","stimulus":"<em>Please wait for 3 seconds...</em>","time_elapsed":31343,"trial_index":21,"dateTime":"2021-11-09T16:19:53.042Z","isRelevant":false},{"internal_node_id":"0.0-0.0-7.0-2.0-0.5","rt":null,"response":null,"trial_type":"html-keyboard-response","stimulus":"<em>Please wait for 2 seconds...</em>","time_elapsed":32346,"trial_index":22,"dateTime":"2021-11-09T16:19:54.045Z","isRelevant":false},{"internal_node_id":"0.0-0.0-7.0-2.0-0.6","rt":null,"response":null,"trial_type":"html-keyboard-response","stimulus":"<em>Please wait for 1 seconds...</em>","time_elapsed":33349,"trial_index":23,"dateTime":"2021-11-09T16:19:55.047Z","isRelevant":false},{"internal_node_id":"0.0-0.0-8.0","rt":7346,"response":" ","trial_type":"html-keyboard-response","stimulus":"That's great! This task is called the one-back task because you have to remember the number shown one position back and compare it to the current number. <br> <br> The next task will require you to remember slightly more items. Ready to try the next one? <br> <br> <em>Press the space bar to continue.</em> ","time_elapsed":40696,"trial_index":24,"dateTime":"2021-11-09T16:20:02.395Z","isRelevant":false},{"taskStarted":true,"dateTime":"2021-11-09T16:20:59.677Z","isRelevant":false},{"taskStarted":true,"dateTime":"2021-11-09T16:21:19.079Z","isRelevant":false},{"trial_index":0,"internal_node_id":"0.0-0.0-0.0-0.0","success":true,"trial_type":"fullscreen","time_elapsed":12128,"dateTime":"2021-11-09T16:21:31.207Z","isRelevant":false},{"internal_node_id":"0.0-0.0-1.0","rt":1823,"response":" ","trial_type":"html-keyboard-response","stimulus":"You are now going to complete a training for a task where you will press the space bar for certain numbers. This task is called the n-back. <br>\r\n<em>Press the space bar to continue.</em>\r\n","time_elapsed":13958,"trial_index":1,"dateTime":"2021-11-09T16:21:33.037Z","isRelevant":false},{"internal_node_id":"0.0-0.0-2.0","rt":396,"response":" ","trial_type":"html-keyboard-response","stimulus":"This task consists of three different parts. In each part you will see a series of numbers, one at a time. The numbers will be presented in the center of the screen. <br>\r\n<em>Press the space bar to continue.</em>\r\n","time_elapsed":14357,"trial_index":2,"dateTime":"2021-11-09T16:21:33.436Z","isRelevant":false},{"internal_node_id":"0.0-0.0-3.0","rt":2233,"response":" ","trial_type":"html-keyboard-response","stimulus":"This first task is super simple - you should just press the space bar whenever you see a '1'. Let's give it a try. <br>\r\n<em>Press the space bar to continue.</em>\r\n","time_elapsed":16591,"trial_index":3,"dateTime":"2021-11-09T16:21:35.671Z","isRelevant":false},{"internal_node_id":"0.0-0.0-4.0-0.0","rt":null,"response":null,"trial_type":"html-keyboard-response","stimulus":"<div class=\"n-back-cue-title\">Zero-Back</div>\r\n<table class=\"n-back-cue-table\">\r\n    <td>6</td>\r\n    <td class=\"n-back-cue-target n-back-cue-highlight\">1</td>\r\n    <td>7</td>\r\n</table>\r\n","time_elapsed":18595,"trial_index":4,"dateTime":"2021-11-09T16:21:37.674Z","isRelevant":false},{"sequence":["1","3","8"],"internal_node_id":"0.0-0.0-4.0-1.0","trial_type":"n-back","time_elapsed":23999,"missedIndices":[],"trial_index":5,"responses":[{"time_from_start":101,"index":0,"time_from_focus":101,"correct":true}],"n":0,"dateTime":"2021-11-09T16:21:43.078Z","isRelevant":false},{"internal_node_id":"0.0-0.0-4.0-2.0-0.0","rt":null,"response":null,"trial_type":"html-keyboard-response","stimulus":"<em>Please wait for 7 seconds...</em>","time_elapsed":25001,"trial_index":6,"dateTime":"2021-11-09T16:21:44.080Z","isRelevant":false},{"internal_node_id":"0.0-0.0-4.0-2.0-0.1","rt":null,"response":null,"trial_type":"html-keyboard-response","stimulus":"<em>Please wait for 6 seconds...</em>","time_elapsed":26003,"trial_index":7,"dateTime":"2021-11-09T16:21:45.083Z","isRelevant":false},{"internal_node_id":"0.0-0.0-4.0-2.0-0.2","rt":null,"response":null,"trial_type":"html-keyboard-response","stimulus":"<em>Please wait for 5 seconds...</em>","time_elapsed":27006,"trial_index":8,"dateTime":"2021-11-09T16:21:46.086Z","isRelevant":false},{"internal_node_id":"0.0-0.0-4.0-2.0-0.3","rt":null,"response":null,"trial_type":"html-keyboard-response","stimulus":"<em>Please wait for 4 seconds...</em>","time_elapsed":28010,"trial_index":9,"dateTime":"2021-11-09T16:21:47.089Z","isRelevant":false},{"internal_node_id":"0.0-0.0-4.0-2.0-0.4","rt":null,"response":null,"trial_type":"html-keyboard-response","stimulus":"<em>Please wait for 3 seconds...</em>","time_elapsed":29011,"trial_index":10,"dateTime":"2021-11-09T16:21:48.090Z","isRelevant":false},{"internal_node_id":"0.0-0.0-4.0-2.0-0.5","rt":null,"response":null,"trial_type":"html-keyboard-response","stimulus":"<em>Please wait for 2 seconds...</em>","time_elapsed":30014,"trial_index":11,"dateTime":"2021-11-09T16:21:49.093Z","isRelevant":false},{"internal_node_id":"0.0-0.0-4.0-2.0-0.6","rt":null,"response":null,"trial_type":"html-keyboard-response","stimulus":"<em>Please wait for 1 seconds...</em>","time_elapsed":31015,"trial_index":12,"dateTime":"2021-11-09T16:21:50.094Z","isRelevant":false},{"internal_node_id":"0.0-0.0-5.0","rt":2069,"response":" ","trial_type":"html-keyboard-response","stimulus":"That's great! This simple task is called the zero-back task because it doesn't require you to think back and compare any digits. <br>\r\n<br>\r\nIn contrast, the next two tasks do require some memory. Ready to try the next one? <br>\r\n<br>\r\n<em>Press the space bar to continue.</em>\r\n","time_elapsed":33086,"trial_index":13,"dateTime":"2021-11-09T16:21:52.165Z","isRelevant":false},{"internal_node_id":"0.0-0.0-6.0","rt":3272,"response":" ","trial_type":"html-keyboard-response","stimulus":"In the third part of this task, your job is to press the space bar when the number on the screen is the same as the number shown two numbers before it. <br>\r\n<br>\r\nFor example, if you saw \"5, 7, 7\", you would press the space bar when the second 7 is on the screen. Let's give it a try. <br>\r\n<br>\r\n<em>Press the space bar to continue.</em>\r\n","time_elapsed":36358,"trial_index":14,"dateTime":"2021-11-09T16:21:55.437Z","isRelevant":false},{"internal_node_id":"0.0-0.0-7.0-0.0","rt":null,"response":null,"trial_type":"html-keyboard-response","stimulus":"<div class=\"n-back-cue-title\">One-Back</div>\r\n<table class=\"n-back-cue-table\">\r\n    <td>5</td>\r\n    <td class=\"n-back-cue-highlight\">7</td>\r\n    <td class=\"n-back-cue-target n-back-cue-highlight\">7</td>\r\n</table>\r\n","time_elapsed":38360,"trial_index":15,"dateTime":"2021-11-09T16:21:57.439Z","isRelevant":false},{"sequence":["1","8","8"],"internal_node_id":"0.0-0.0-7.0-1.0","trial_type":"n-back","time_elapsed":43762,"missedIndices":[],"trial_index":16,"responses":[{"time_from_start":4030,"index":2,"time_from_focus":429,"correct":true}],"n":1,"dateTime":"2021-11-09T16:22:02.841Z","isRelevant":false},{"internal_node_id":"0.0-0.0-7.0-2.0-0.0","rt":null,"response":null,"trial_type":"html-keyboard-response","stimulus":"<em>Please wait for 7 seconds...</em>","time_elapsed":44765,"trial_index":17,"dateTime":"2021-11-09T16:22:03.844Z","isRelevant":false},{"internal_node_id":"0.0-0.0-7.0-2.0-0.1","rt":null,"response":null,"trial_type":"html-keyboard-response","stimulus":"<em>Please wait for 6 seconds...</em>","time_elapsed":45765,"trial_index":18,"dateTime":"2021-11-09T16:22:04.845Z","isRelevant":false},{"internal_node_id":"0.0-0.0-7.0-2.0-0.2","rt":null,"response":null,"trial_type":"html-keyboard-response","stimulus":"<em>Please wait for 5 seconds...</em>","time_elapsed":46768,"trial_index":19,"dateTime":"2021-11-09T16:22:05.847Z","isRelevant":false},{"internal_node_id":"0.0-0.0-7.0-2.0-0.3","rt":null,"response":null,"trial_type":"html-keyboard-response","stimulus":"<em>Please wait for 4 seconds...</em>","time_elapsed":47770,"trial_index":20,"dateTime":"2021-11-09T16:22:06.850Z","isRelevant":false},{"internal_node_id":"0.0-0.0-7.0-2.0-0.4","rt":null,"response":null,"trial_type":"html-keyboard-response","stimulus":"<em>Please wait for 3 seconds...</em>","time_elapsed":48772,"trial_index":21,"dateTime":"2021-11-09T16:22:07.851Z","isRelevant":false},{"internal_node_id":"0.0-0.0-7.0-2.0-0.5","rt":null,"response":null,"trial_type":"html-keyboard-response","stimulus":"<em>Please wait for 2 seconds...</em>","time_elapsed":49773,"trial_index":22,"dateTime":"2021-11-09T16:22:08.853Z","isRelevant":false},{"internal_node_id":"0.0-0.0-7.0-2.0-0.6","rt":null,"response":null,"trial_type":"html-keyboard-response","stimulus":"<em>Please wait for 1 seconds...</em>","time_elapsed":50776,"trial_index":23,"dateTime":"2021-11-09T16:22:09.855Z","isRelevant":false},{"internal_node_id":"0.0-0.0-8.0","rt":1232,"response":" ","trial_type":"html-keyboard-response","stimulus":"That's great! This task is called the one-back task because you have to remember the number shown one position back and compare it to the current number. <br>\r\n<br>\r\nThe next task will require you to remember slightly more items. Ready to try the next one? <br>\r\n<br>\r\n<em>Press the space bar to continue.</em>\r\n","time_elapsed":52011,"trial_index":24,"dateTime":"2021-11-09T16:22:11.090Z","isRelevant":false},{"taskStarted":true,"dateTime":"2021-11-09T16:23:04.488Z","isRelevant":false},{"trial_index":0,"internal_node_id":"0.0-0.0-0.0-0.0","success":true,"trial_type":"fullscreen","time_elapsed":1261,"dateTime":"2021-11-09T16:23:05.750Z","isRelevant":false},{"internal_node_id":"0.0-0.0-1.0","rt":447,"response":" ","trial_type":"html-keyboard-response","stimulus":"You are now going to complete a training for a task where you will press the space bar for certain numbers. This task is called the n-back. <br>\r\n<em>Press the space bar to continue.</em>\r\n","time_elapsed":1710,"trial_index":1,"dateTime":"2021-11-09T16:23:06.199Z","isRelevant":false},{"internal_node_id":"0.0-0.0-2.0","rt":201,"response":" ","trial_type":"html-keyboard-response","stimulus":"This task consists of three different parts. In each part you will see a series of numbers, one at a time. The numbers will be presented in the center of the screen. <br>\r\n<em>Press the space bar to continue.</em>\r\n","time_elapsed":1914,"trial_index":2,"dateTime":"2021-11-09T16:23:06.402Z","isRelevant":false},{"internal_node_id":"0.0-0.0-3.0","rt":160,"response":" ","trial_type":"html-keyboard-response","stimulus":"This first task is super simple - you should just press the space bar whenever you see a '1'. Let's give it a try. <br>\r\n<em>Press the space bar to continue.</em>\r\n","time_elapsed":2074,"trial_index":3,"dateTime":"2021-11-09T16:23:06.563Z","isRelevant":false},{"internal_node_id":"0.0-0.0-4.0-0.0","rt":null,"response":null,"trial_type":"html-keyboard-response","stimulus":"<div class=\"n-back-cue-title\">Zero-Back</div>\r\n<table class=\"n-back-cue-table\">\r\n    <td>6</td>\r\n    <td class=\"n-back-cue-target n-back-cue-highlight\">1</td>\r\n    <td>7</td>\r\n</table>\r\n","time_elapsed":4077,"trial_index":4,"dateTime":"2021-11-09T16:23:08.565Z","isRelevant":false},{"sequence":["5","6","1"],"internal_node_id":"0.0-0.0-4.0-1.0","trial_type":"n-back","time_elapsed":9481,"missedIndices":[],"trial_index":5,"responses":[{"time_from_start":3984,"index":2,"time_from_focus":383,"correct":true}],"n":0,"dateTime":"2021-11-09T16:23:13.969Z","isRelevant":false},{"internal_node_id":"0.0-0.0-4.0-2.0-0.0","rt":null,"response":null,"trial_type":"html-keyboard-response","stimulus":"<em>Please wait for 7 seconds...</em>","time_elapsed":10485,"trial_index":6,"dateTime":"2021-11-09T16:23:14.974Z","isRelevant":false},{"internal_node_id":"0.0-0.0-4.0-2.0-0.1","rt":null,"response":null,"trial_type":"html-keyboard-response","stimulus":"<em>Please wait for 6 seconds...</em>","time_elapsed":11489,"trial_index":7,"dateTime":"2021-11-09T16:23:15.977Z","isRelevant":false},{"internal_node_id":"0.0-0.0-4.0-2.0-0.2","rt":null,"response":null,"trial_type":"html-keyboard-response","stimulus":"<em>Please wait for 5 seconds...</em>","time_elapsed":12491,"trial_index":8,"dateTime":"2021-11-09T16:23:16.980Z","isRelevant":false},{"internal_node_id":"0.0-0.0-4.0-2.0-0.3","rt":null,"response":null,"trial_type":"html-keyboard-response","stimulus":"<em>Please wait for 4 seconds...</em>","time_elapsed":13494,"trial_index":9,"dateTime":"2021-11-09T16:23:17.982Z","isRelevant":false},{"internal_node_id":"0.0-0.0-4.0-2.0-0.4","rt":null,"response":null,"trial_type":"html-keyboard-response","stimulus":"<em>Please wait for 3 seconds...</em>","time_elapsed":14497,"trial_index":10,"dateTime":"2021-11-09T16:23:18.985Z","isRelevant":false},{"internal_node_id":"0.0-0.0-4.0-2.0-0.5","rt":null,"response":null,"trial_type":"html-keyboard-response","stimulus":"<em>Please wait for 2 seconds...</em>","time_elapsed":15499,"trial_index":11,"dateTime":"2021-11-09T16:23:19.987Z","isRelevant":false},{"internal_node_id":"0.0-0.0-4.0-2.0-0.6","rt":null,"response":null,"trial_type":"html-keyboard-response","stimulus":"<em>Please wait for 1 seconds...</em>","time_elapsed":16501,"trial_index":12,"dateTime":"2021-11-09T16:23:20.989Z","isRelevant":false},{"internal_node_id":"0.0-0.0-5.0","rt":1375,"response":" ","trial_type":"html-keyboard-response","stimulus":"That's great! This simple task is called the zero-back task because it doesn't require you to think back and compare any digits. <br>\r\n<br>\r\nIn contrast, the next two tasks do require some memory. Ready to try the next one? <br>\r\n<br>\r\n<em>Press the space bar to continue.</em>\r\n","time_elapsed":17878,"trial_index":13,"dateTime":"2021-11-09T16:23:22.366Z","isRelevant":false},{"internal_node_id":"0.0-0.0-6.0","rt":8596,"response":" ","trial_type":"html-keyboard-response","stimulus":"In the second part of this task, your job is to press the space bar when the number on the screen is the same as the number immediately before the number currently on the screen. <br>\r\n<br>\r\nFor example, if you saw \"5, 7, 7\", you would press the space bar when the second 7 is on the screen. Let's give it a try. <br>\r\n<br>\r\n<em>Press the space bar to continue.</em>\r\n","time_elapsed":26475,"trial_index":14,"dateTime":"2021-11-09T16:23:30.964Z","isRelevant":false},{"internal_node_id":"0.0-0.0-7.0-0.0","rt":null,"response":null,"trial_type":"html-keyboard-response","stimulus":"<div class=\"n-back-cue-title\">One-Back</div>\r\n<table class=\"n-back-cue-table\">\r\n    <td>5</td>\r\n    <td class=\"n-back-cue-highlight\">7</td>\r\n    <td class=\"n-back-cue-target n-back-cue-highlight\">7</td>\r\n</table>\r\n","time_elapsed":28479,"trial_index":15,"dateTime":"2021-11-09T16:23:32.968Z","isRelevant":false},{"sequence":["4","2","2"],"internal_node_id":"0.0-0.0-7.0-1.0","trial_type":"n-back","time_elapsed":33882,"missedIndices":[],"trial_index":16,"responses":[{"time_from_start":3915,"index":2,"time_from_focus":314,"correct":true}],"n":1,"dateTime":"2021-11-09T16:23:38.371Z","isRelevant":false},{"internal_node_id":"0.0-0.0-7.0-2.0-0.0","rt":null,"response":null,"trial_type":"html-keyboard-response","stimulus":"<em>Please wait for 7 seconds...</em>","time_elapsed":34884,"trial_index":17,"dateTime":"2021-11-09T16:23:39.373Z","isRelevant":false},{"internal_node_id":"0.0-0.0-7.0-2.0-0.1","rt":null,"response":null,"trial_type":"html-keyboard-response","stimulus":"<em>Please wait for 6 seconds...</em>","time_elapsed":35887,"trial_index":18,"dateTime":"2021-11-09T16:23:40.375Z","isRelevant":false},{"internal_node_id":"0.0-0.0-7.0-2.0-0.2","rt":null,"response":null,"trial_type":"html-keyboard-response","stimulus":"<em>Please wait for 5 seconds...</em>","time_elapsed":36890,"trial_index":19,"dateTime":"2021-11-09T16:23:41.379Z","isRelevant":false},{"internal_node_id":"0.0-0.0-7.0-2.0-0.3","rt":null,"response":null,"trial_type":"html-keyboard-response","stimulus":"<em>Please wait for 4 seconds...</em>","time_elapsed":37892,"trial_index":20,"dateTime":"2021-11-09T16:23:42.380Z","isRelevant":false},{"internal_node_id":"0.0-0.0-7.0-2.0-0.4","rt":null,"response":null,"trial_type":"html-keyboard-response","stimulus":"<em>Please wait for 3 seconds...</em>","time_elapsed":38894,"trial_index":21,"dateTime":"2021-11-09T16:23:43.382Z","isRelevant":false},{"internal_node_id":"0.0-0.0-7.0-2.0-0.5","rt":null,"response":null,"trial_type":"html-keyboard-response","stimulus":"<em>Please wait for 2 seconds...</em>","time_elapsed":39896,"trial_index":22,"dateTime":"2021-11-09T16:23:44.384Z","isRelevant":false},{"internal_node_id":"0.0-0.0-7.0-2.0-0.6","rt":null,"response":null,"trial_type":"html-keyboard-response","stimulus":"<em>Please wait for 1 seconds...</em>","time_elapsed":40899,"trial_index":23,"dateTime":"2021-11-09T16:23:45.387Z","isRelevant":false},{"internal_node_id":"0.0-0.0-8.0","rt":7335,"response":" ","trial_type":"html-keyboard-response","stimulus":"That's great! This task is called the one-back task because you have to remember the number shown one position back and compare it to the current number. <br>\r\n<br>\r\nThe next task will require you to remember slightly more items. Ready to try the next one? <br>\r\n<br>\r\n<em>Press the space bar to continue.</em>\r\n","time_elapsed":48235,"trial_index":24,"dateTime":"2021-11-09T16:23:52.724Z","isRelevant":false},{"taskStarted":true,"dateTime":"2021-11-09T16:25:36.247Z","isRelevant":false},{"taskStarted":true,"dateTime":"2021-11-09T16:25:40.337Z","isRelevant":false},{"trial_index":0,"internal_node_id":"0.0-0.0-0.0-0.0","success":true,"trial_type":"fullscreen","time_elapsed":1941,"dateTime":"2021-11-09T16:25:42.278Z","isRelevant":false},{"internal_node_id":"0.0-0.0-1.0","rt":1123,"response":" ","trial_type":"html-keyboard-response","stimulus":"You are now going to complete a training for a task where you will press the space bar for certain numbers. This task is called the n-back. <br>\r\n<em>Press the space bar to continue.</em>\r\n","time_elapsed":3065,"trial_index":1,"dateTime":"2021-11-09T16:25:43.403Z","isRelevant":false},{"internal_node_id":"0.0-0.0-2.0","rt":155,"response":" ","trial_type":"html-keyboard-response","stimulus":"This task consists of three different parts. In each part you will see a series of numbers, one at a time. The numbers will be presented in the center of the screen. <br>\r\n<em>Press the space bar to continue.</em>\r\n","time_elapsed":3224,"trial_index":2,"dateTime":"2021-11-09T16:25:43.562Z","isRelevant":false},{"internal_node_id":"0.0-0.0-3.0","rt":529,"response":" ","trial_type":"html-keyboard-response","stimulus":"This first task is super simple - you should just press the space bar whenever you see a '1'. Let's give it a try. <br>\r\n<em>Press the space bar to continue.</em>\r\n","time_elapsed":3756,"trial_index":3,"dateTime":"2021-11-09T16:25:44.093Z","isRelevant":false},{"internal_node_id":"0.0-0.0-4.0-0.0","rt":null,"response":null,"trial_type":"html-keyboard-response","stimulus":"<div class=\"n-back-cue-title\">Zero-Back</div>\r\n<table class=\"n-back-cue-table\">\r\n    <td>6</td>\r\n    <td class=\"n-back-cue-target n-back-cue-highlight\">1</td>\r\n    <td>7</td>\r\n</table>\r\n","time_elapsed":5759,"trial_index":4,"dateTime":"2021-11-09T16:25:46.096Z","isRelevant":false},{"sequence":["4","1","7"],"internal_node_id":"0.0-0.0-4.0-1.0","trial_type":"n-back","time_elapsed":11162,"missedIndices":[],"trial_index":5,"responses":[{"time_from_start":2172,"index":1,"time_from_focus":372,"correct":true}],"n":0,"dateTime":"2021-11-09T16:25:51.500Z","isRelevant":false},{"internal_node_id":"0.0-0.0-4.0-2.0-0.0","rt":null,"response":null,"trial_type":"html-keyboard-response","stimulus":"<em>Please wait for 7 seconds...</em>","time_elapsed":12166,"trial_index":6,"dateTime":"2021-11-09T16:25:52.503Z","isRelevant":false},{"internal_node_id":"0.0-0.0-4.0-2.0-0.1","rt":null,"response":null,"trial_type":"html-keyboard-response","stimulus":"<em>Please wait for 6 seconds...</em>","time_elapsed":13168,"trial_index":7,"dateTime":"2021-11-09T16:25:53.505Z","isRelevant":false},{"internal_node_id":"0.0-0.0-4.0-2.0-0.2","rt":null,"response":null,"trial_type":"html-keyboard-response","stimulus":"<em>Please wait for 5 seconds...</em>","time_elapsed":14170,"trial_index":8,"dateTime":"2021-11-09T16:25:54.507Z","isRelevant":false},{"internal_node_id":"0.0-0.0-4.0-2.0-0.3","rt":null,"response":null,"trial_type":"html-keyboard-response","stimulus":"<em>Please wait for 4 seconds...</em>","time_elapsed":15172,"trial_index":9,"dateTime":"2021-11-09T16:25:55.509Z","isRelevant":false},{"internal_node_id":"0.0-0.0-4.0-2.0-0.4","rt":null,"response":null,"trial_type":"html-keyboard-response","stimulus":"<em>Please wait for 3 seconds...</em>","time_elapsed":16175,"trial_index":10,"dateTime":"2021-11-09T16:25:56.512Z","isRelevant":false},{"internal_node_id":"0.0-0.0-4.0-2.0-0.5","rt":null,"response":null,"trial_type":"html-keyboard-response","stimulus":"<em>Please wait for 2 seconds...</em>","time_elapsed":17176,"trial_index":11,"dateTime":"2021-11-09T16:25:57.514Z","isRelevant":false},{"internal_node_id":"0.0-0.0-4.0-2.0-0.6","rt":null,"response":null,"trial_type":"html-keyboard-response","stimulus":"<em>Please wait for 1 seconds...</em>","time_elapsed":18179,"trial_index":12,"dateTime":"2021-11-09T16:25:58.516Z","isRelevant":false},{"internal_node_id":"0.0-0.0-5.0","rt":4664,"response":" ","trial_type":"html-keyboard-response","stimulus":"That's great! This simple task is called the zero-back task because it doesn't require you to think back and compare any digits. <br>\r\n<br>\r\nIn contrast, the next two tasks do require some memory. Ready to try the next one? <br>\r\n<br>\r\n<em>Press the space bar to continue.</em>\r\n","time_elapsed":22844,"trial_index":13,"dateTime":"2021-11-09T16:26:03.182Z","isRelevant":false},{"internal_node_id":"0.0-0.0-6.0","rt":986,"response":" ","trial_type":"html-keyboard-response","stimulus":"In the third part of this task, your job is to press the space bar when the number on the screen is the same as the number shown two numbers before it. <br>\r\n<br>\r\nFor example, if you saw \"5, 7, 7\", you would press the space bar when the second 7 is on the screen. Let's give it a try. <br>\r\n<br>\r\n<em>Press the space bar to continue.</em>\r\n","time_elapsed":23832,"trial_index":14,"dateTime":"2021-11-09T16:26:04.169Z","isRelevant":false},{"internal_node_id":"0.0-0.0-7.0-0.0","rt":null,"response":null,"trial_type":"html-keyboard-response","stimulus":"<div class=\"n-back-cue-title\">One-Back</div>\r\n<table class=\"n-back-cue-table\">\r\n    <td>5</td>\r\n    <td class=\"n-back-cue-highlight\">7</td>\r\n    <td class=\"n-back-cue-target n-back-cue-highlight\">7</td>\r\n</table>\r\n","time_elapsed":25833,"trial_index":15,"dateTime":"2021-11-09T16:26:06.170Z","isRelevant":false},{"sequence":["1","1","8"],"internal_node_id":"0.0-0.0-7.0-1.0","trial_type":"n-back","time_elapsed":31235,"missedIndices":[],"trial_index":16,"responses":[{"time_from_start":2181,"index":1,"time_from_focus":380,"correct":true}],"n":1,"dateTime":"2021-11-09T16:26:11.572Z","isRelevant":false},{"internal_node_id":"0.0-0.0-7.0-2.0-0.0","rt":null,"response":null,"trial_type":"html-keyboard-response","stimulus":"<em>Please wait for 7 seconds...</em>","time_elapsed":32238,"trial_index":17,"dateTime":"2021-11-09T16:26:12.575Z","isRelevant":false},{"internal_node_id":"0.0-0.0-7.0-2.0-0.1","rt":null,"response":null,"trial_type":"html-keyboard-response","stimulus":"<em>Please wait for 6 seconds...</em>","time_elapsed":33240,"trial_index":18,"dateTime":"2021-11-09T16:26:13.577Z","isRelevant":false},{"internal_node_id":"0.0-0.0-7.0-2.0-0.2","rt":null,"response":null,"trial_type":"html-keyboard-response","stimulus":"<em>Please wait for 5 seconds...</em>","time_elapsed":34241,"trial_index":19,"dateTime":"2021-11-09T16:26:14.580Z","isRelevant":false},{"internal_node_id":"0.0-0.0-7.0-2.0-0.3","rt":null,"response":null,"trial_type":"html-keyboard-response","stimulus":"<em>Please wait for 4 seconds...</em>","time_elapsed":35245,"trial_index":20,"dateTime":"2021-11-09T16:26:15.582Z","isRelevant":false},{"internal_node_id":"0.0-0.0-7.0-2.0-0.4","rt":null,"response":null,"trial_type":"html-keyboard-response","stimulus":"<em>Please wait for 3 seconds...</em>","time_elapsed":36247,"trial_index":21,"dateTime":"2021-11-09T16:26:16.584Z","isRelevant":false},{"internal_node_id":"0.0-0.0-7.0-2.0-0.5","rt":null,"response":null,"trial_type":"html-keyboard-response","stimulus":"<em>Please wait for 2 seconds...</em>","time_elapsed":37248,"trial_index":22,"dateTime":"2021-11-09T16:26:17.585Z","isRelevant":false},{"internal_node_id":"0.0-0.0-7.0-2.0-0.6","rt":null,"response":null,"trial_type":"html-keyboard-response","stimulus":"<em>Please wait for 1 seconds...</em>","time_elapsed":38251,"trial_index":23,"dateTime":"2021-11-09T16:26:18.588Z","isRelevant":false},{"internal_node_id":"0.0-0.0-8.0","rt":5709,"response":" ","trial_type":"html-keyboard-response","stimulus":"That's great! This task is called the one-back task because you have to remember the number shown one position back and compare it to the current number. <br>\r\n<br>\r\nThe next task will require you to remember slightly more items. Ready to try the next one? <br>\r\n<br>\r\n<em>Press the space bar to continue.</em>\r\n","time_elapsed":43962,"trial_index":24,"dateTime":"2021-11-09T16:26:24.299Z","isRelevant":false},{"taskStarted":true,"dateTime":"2021-11-09T16:28:04.403Z","isRelevant":false},{"taskStarted":true,"dateTime":"2021-11-09T16:29:47.171Z","isRelevant":false},{"trial_index":0,"internal_node_id":"0.0-0.0-0.0-0.0","success":true,"trial_type":"fullscreen","time_elapsed":978,"dateTime":"2021-11-09T16:29:48.148Z","isRelevant":false},{"internal_node_id":"0.0-0.0-1.0","rt":403,"response":" ","trial_type":"html-keyboard-response","stimulus":"You are now going to complete a training for a task where you will press the space bar for certain numbers. This task is called the n-back. <br>\r\n<em>Press the space bar to continue.</em>\r\n","time_elapsed":1383,"trial_index":1,"dateTime":"2021-11-09T16:29:48.554Z","isRelevant":false},{"internal_node_id":"0.0-0.0-2.0","rt":159,"response":" ","trial_type":"html-keyboard-response","stimulus":"This task consists of three different parts. In each part you will see a series of numbers, one at a time. The numbers will be presented in the center of the screen. <br>\r\n<em>Press the space bar to continue.</em>\r\n","time_elapsed":1544,"trial_index":2,"dateTime":"2021-11-09T16:29:48.714Z","isRelevant":false},{"internal_node_id":"0.0-0.0-3.0","rt":137,"response":" ","trial_type":"html-keyboard-response","stimulus":"This first task is super simple - you should just press the space bar whenever you see a '1'. Let's give it a try. <br>\r\n<em>Press the space bar to continue.</em>\r\n","time_elapsed":1683,"trial_index":3,"dateTime":"2021-11-09T16:29:48.854Z","isRelevant":false},{"internal_node_id":"0.0-0.0-4.0-0.0","rt":null,"response":null,"trial_type":"html-keyboard-response","stimulus":"<div class=\"n-back-cue-title\">Zero-Back</div>\r\n<table class=\"n-back-cue-table\">\r\n    <td>6</td>\r\n    <td class=\"n-back-cue-target n-back-cue-highlight\">1</td>\r\n    <td>7</td>\r\n</table>\r\n","time_elapsed":3685,"trial_index":4,"dateTime":"2021-11-09T16:29:50.855Z","isRelevant":false},{"sequence":["9","1","7"],"internal_node_id":"0.0-0.0-4.0-1.0","trial_type":"n-back","time_elapsed":9088,"missedIndices":[],"trial_index":5,"responses":[{"time_from_start":2729,"index":1,"time_from_focus":929,"correct":true}],"n":0,"dateTime":"2021-11-09T16:29:56.259Z","isRelevant":false},{"internal_node_id":"0.0-0.0-4.0-2.0-0.0","rt":null,"response":null,"trial_type":"html-keyboard-response","stimulus":"<em>Please wait for 7 seconds...</em>","time_elapsed":10094,"trial_index":6,"dateTime":"2021-11-09T16:29:57.264Z","isRelevant":false},{"internal_node_id":"0.0-0.0-4.0-2.0-0.1","rt":null,"response":null,"trial_type":"html-keyboard-response","stimulus":"<em>Please wait for 6 seconds...</em>","time_elapsed":11096,"trial_index":7,"dateTime":"2021-11-09T16:29:58.266Z","isRelevant":false},{"internal_node_id":"0.0-0.0-4.0-2.0-0.2","rt":null,"response":null,"trial_type":"html-keyboard-response","stimulus":"<em>Please wait for 5 seconds...</em>","time_elapsed":12098,"trial_index":8,"dateTime":"2021-11-09T16:29:59.269Z","isRelevant":false},{"internal_node_id":"0.0-0.0-4.0-2.0-0.3","rt":null,"response":null,"trial_type":"html-keyboard-response","stimulus":"<em>Please wait for 4 seconds...</em>","time_elapsed":13100,"trial_index":9,"dateTime":"2021-11-09T16:30:00.271Z","isRelevant":false},{"internal_node_id":"0.0-0.0-4.0-2.0-0.4","rt":null,"response":null,"trial_type":"html-keyboard-response","stimulus":"<em>Please wait for 3 seconds...</em>","time_elapsed":14103,"trial_index":10,"dateTime":"2021-11-09T16:30:01.273Z","isRelevant":false},{"internal_node_id":"0.0-0.0-4.0-2.0-0.5","rt":null,"response":null,"trial_type":"html-keyboard-response","stimulus":"<em>Please wait for 2 seconds...</em>","time_elapsed":15104,"trial_index":11,"dateTime":"2021-11-09T16:30:02.274Z","isRelevant":false},{"internal_node_id":"0.0-0.0-4.0-2.0-0.6","rt":null,"response":null,"trial_type":"html-keyboard-response","stimulus":"<em>Please wait for 1 seconds...</em>","time_elapsed":16107,"trial_index":12,"dateTime":"2021-11-09T16:30:03.277Z","isRelevant":false},{"internal_node_id":"0.0-0.0-5.0","rt":1800,"response":" ","trial_type":"html-keyboard-response","stimulus":"That's great! This simple task is called the zero-back task because it doesn't require you to think back and compare any digits. <br>\r\n<br>\r\nIn contrast, the next two tasks do require some memory. Ready to try the next one? <br>\r\n<br>\r\n<em>Press the space bar to continue.</em>\r\n","time_elapsed":17909,"trial_index":13,"dateTime":"2021-11-09T16:30:05.079Z","isRelevant":false},{"internal_node_id":"0.0-0.0-6.0","rt":1836,"response":" ","trial_type":"html-keyboard-response","stimulus":"In the second part of this task, your job is to press the space bar when the number on the screen is the same as the number immediately before the number currently on the screen. <br>\r\n<br>\r\nFor example, if you saw \"5, 7, 7\", you would press the space bar when the second 7 is on the screen. Let's give it a try. <br>\r\n<br>\r\n<em>Press the space bar to continue.</em>\r\n","time_elapsed":19745,"trial_index":14,"dateTime":"2021-11-09T16:30:06.915Z","isRelevant":false},{"internal_node_id":"0.0-0.0-7.0-0.0","rt":null,"response":null,"trial_type":"html-keyboard-response","stimulus":"<div class=\"n-back-cue-title\">One-Back</div>\r\n<table class=\"n-back-cue-table\">\r\n    <td>5</td>\r\n    <td class=\"n-back-cue-highlight\">7</td>\r\n    <td class=\"n-back-cue-target n-back-cue-highlight\">7</td>\r\n</table>\r\n","time_elapsed":21748,"trial_index":15,"dateTime":"2021-11-09T16:30:08.919Z","isRelevant":false},{"sequence":["4","7","7"],"internal_node_id":"0.0-0.0-7.0-1.0","trial_type":"n-back","time_elapsed":27150,"missedIndices":[],"trial_index":16,"responses":[{"time_from_start":2268,"index":1,"time_from_focus":467,"correct":false},{"time_from_start":4365,"index":2,"time_from_focus":764,"correct":true}],"n":1,"dateTime":"2021-11-09T16:30:14.321Z","isRelevant":false},{"internal_node_id":"0.0-0.0-7.0-2.0-0.0","rt":null,"response":null,"trial_type":"html-keyboard-response","stimulus":"<em>Please wait for 7 seconds...</em>","time_elapsed":28153,"trial_index":17,"dateTime":"2021-11-09T16:30:15.323Z","isRelevant":false},{"internal_node_id":"0.0-0.0-7.0-2.0-0.1","rt":null,"response":null,"trial_type":"html-keyboard-response","stimulus":"<em>Please wait for 6 seconds...</em>","time_elapsed":29156,"trial_index":18,"dateTime":"2021-11-09T16:30:16.326Z","isRelevant":false},{"internal_node_id":"0.0-0.0-7.0-2.0-0.2","rt":null,"response":null,"trial_type":"html-keyboard-response","stimulus":"<em>Please wait for 5 seconds...</em>","time_elapsed":30158,"trial_index":19,"dateTime":"2021-11-09T16:30:17.329Z","isRelevant":false},{"internal_node_id":"0.0-0.0-7.0-2.0-0.3","rt":null,"response":null,"trial_type":"html-keyboard-response","stimulus":"<em>Please wait for 4 seconds...</em>","time_elapsed":31160,"trial_index":20,"dateTime":"2021-11-09T16:30:18.330Z","isRelevant":false},{"internal_node_id":"0.0-0.0-7.0-2.0-0.4","rt":null,"response":null,"trial_type":"html-keyboard-response","stimulus":"<em>Please wait for 3 seconds...</em>","time_elapsed":32161,"trial_index":21,"dateTime":"2021-11-09T16:30:19.331Z","isRelevant":false},{"internal_node_id":"0.0-0.0-7.0-2.0-0.5","rt":null,"response":null,"trial_type":"html-keyboard-response","stimulus":"<em>Please wait for 2 seconds...</em>","time_elapsed":33163,"trial_index":22,"dateTime":"2021-11-09T16:30:20.333Z","isRelevant":false},{"internal_node_id":"0.0-0.0-7.0-2.0-0.6","rt":null,"response":null,"trial_type":"html-keyboard-response","stimulus":"<em>Please wait for 1 seconds...</em>","time_elapsed":34165,"trial_index":23,"dateTime":"2021-11-09T16:30:21.336Z","isRelevant":false},{"internal_node_id":"0.0-0.0-7.0-3.0-0.0","rt":395,"response":" ","trial_type":"html-keyboard-response","stimulus":"Please try again. <br>\r\n<em>Press the space bar to continue.</em>\r\n","time_elapsed":34562,"trial_index":24,"dateTime":"2021-11-09T16:30:21.732Z","isRelevant":false},{"internal_node_id":"0.0-0.0-7.1-0.1","rt":null,"response":null,"trial_type":"html-keyboard-response","stimulus":"<div class=\"n-back-cue-title\">One-Back</div>\r\n<table class=\"n-back-cue-table\">\r\n    <td>5</td>\r\n    <td class=\"n-back-cue-highlight\">7</td>\r\n    <td class=\"n-back-cue-target n-back-cue-highlight\">7</td>\r\n</table>\r\n","time_elapsed":36564,"trial_index":25,"dateTime":"2021-11-09T16:30:23.734Z","isRelevant":false},{"sequence":["3","3","5"],"internal_node_id":"0.0-0.0-7.1-1.1","trial_type":"n-back","time_elapsed":41967,"missedIndices":[],"trial_index":26,"responses":[{"time_from_start":2550,"index":1,"time_from_focus":749,"correct":true}],"n":1,"dateTime":"2021-11-09T16:30:29.137Z","isRelevant":false},{"internal_node_id":"0.0-0.0-7.1-2.1-0.7","rt":null,"response":null,"trial_type":"html-keyboard-response","stimulus":"<em>Please wait for 7 seconds...</em>","time_elapsed":42969,"trial_index":27,"dateTime":"2021-11-09T16:30:30.140Z","isRelevant":false},{"internal_node_id":"0.0-0.0-7.1-2.1-0.8","rt":null,"response":null,"trial_type":"html-keyboard-response","stimulus":"<em>Please wait for 6 seconds...</em>","time_elapsed":43972,"trial_index":28,"dateTime":"2021-11-09T16:30:31.142Z","isRelevant":false},{"internal_node_id":"0.0-0.0-7.1-2.1-0.9","rt":null,"response":null,"trial_type":"html-keyboard-response","stimulus":"<em>Please wait for 5 seconds...</em>","time_elapsed":44973,"trial_index":29,"dateTime":"2021-11-09T16:30:32.143Z","isRelevant":false},{"internal_node_id":"0.0-0.0-7.1-2.1-0.10","rt":null,"response":null,"trial_type":"html-keyboard-response","stimulus":"<em>Please wait for 4 seconds...</em>","time_elapsed":45974,"trial_index":30,"dateTime":"2021-11-09T16:30:33.144Z","isRelevant":false},{"internal_node_id":"0.0-0.0-7.1-2.1-0.11","rt":null,"response":null,"trial_type":"html-keyboard-response","stimulus":"<em>Please wait for 3 seconds...</em>","time_elapsed":46977,"trial_index":31,"dateTime":"2021-11-09T16:30:34.147Z","isRelevant":false},{"internal_node_id":"0.0-0.0-7.1-2.1-0.12","rt":null,"response":null,"trial_type":"html-keyboard-response","stimulus":"<em>Please wait for 2 seconds...</em>","time_elapsed":47980,"trial_index":32,"dateTime":"2021-11-09T16:30:35.150Z","isRelevant":false},{"internal_node_id":"0.0-0.0-7.1-2.1-0.13","rt":null,"response":null,"trial_type":"html-keyboard-response","stimulus":"<em>Please wait for 1 seconds...</em>","time_elapsed":48981,"trial_index":33,"dateTime":"2021-11-09T16:30:36.151Z","isRelevant":false},{"internal_node_id":"0.0-0.0-8.0","rt":6624,"response":" ","trial_type":"html-keyboard-response","stimulus":"That's great! This task is called the one-back task because you have to remember the number shown one position back and compare it to the current number. <br>\r\n<br>\r\nThe next task will require you to remember slightly more items. Ready to try the next one? <br>\r\n<br>\r\n<em>Press the space bar to continue.</em>\r\n","time_elapsed":55606,"trial_index":34,"dateTime":"2021-11-09T16:30:42.777Z","isRelevant":false},{"internal_node_id":"0.0-0.0-9.0","rt":10620,"response":" ","trial_type":"html-keyboard-response","stimulus":"In the third part of this task, your job is to press the space bar when the number on the screen is the same as the number shown two numbers before it. <br>\r\n<br>\r\nFor example, if you saw \"6, 3, 6\", you would press the space bar when the second 6 is on the screen. Let's give it a try. <br>\r\n<br>\r\n<em>Press the space bar to continue.</em>\r\n","time_elapsed":66228,"trial_index":35,"dateTime":"2021-11-09T16:30:53.398Z","isRelevant":false},{"internal_node_id":"0.0-0.0-10.0-0.0","rt":null,"response":null,"trial_type":"html-keyboard-response","stimulus":"<div class=\"n-back-cue-title\">Two-Back</div>\r\n<table class=\"n-back-cue-table\">\r\n    <td class=\"n-back-cue-highlight\">6</td>\r\n    <td>3</td>\r\n    <td class=\"n-back-cue-target n-back-cue-highlight\">6</td>\r\n</table>\r\n","time_elapsed":68232,"trial_index":36,"dateTime":"2021-11-09T16:30:55.403Z","isRelevant":false},{"sequence":["5","5","5"],"internal_node_id":"0.0-0.0-10.0-1.0","trial_type":"n-back","time_elapsed":73638,"missedIndices":[],"trial_index":37,"responses":[{"time_from_start":3871,"index":2,"time_from_focus":269,"correct":true}],"n":2,"dateTime":"2021-11-09T16:31:00.808Z","isRelevant":false},{"internal_node_id":"0.0-0.0-10.0-2.0-0.0","rt":null,"response":null,"trial_type":"html-keyboard-response","stimulus":"<em>Please wait for 7 seconds...</em>","time_elapsed":74641,"trial_index":38,"dateTime":"2021-11-09T16:31:01.812Z","isRelevant":false},{"internal_node_id":"0.0-0.0-10.0-2.0-0.1","rt":null,"response":null,"trial_type":"html-keyboard-response","stimulus":"<em>Please wait for 6 seconds...</em>","time_elapsed":75644,"trial_index":39,"dateTime":"2021-11-09T16:31:02.814Z","isRelevant":false},{"internal_node_id":"0.0-0.0-10.0-2.0-0.2","rt":null,"response":null,"trial_type":"html-keyboard-response","stimulus":"<em>Please wait for 5 seconds...</em>","time_elapsed":76647,"trial_index":40,"dateTime":"2021-11-09T16:31:03.817Z","isRelevant":false},{"internal_node_id":"0.0-0.0-10.0-2.0-0.3","rt":null,"response":null,"trial_type":"html-keyboard-response","stimulus":"<em>Please wait for 4 seconds...</em>","time_elapsed":77649,"trial_index":41,"dateTime":"2021-11-09T16:31:04.819Z","isRelevant":false},{"internal_node_id":"0.0-0.0-10.0-2.0-0.4","rt":null,"response":null,"trial_type":"html-keyboard-response","stimulus":"<em>Please wait for 3 seconds...</em>","time_elapsed":78651,"trial_index":42,"dateTime":"2021-11-09T16:31:05.821Z","isRelevant":false},{"internal_node_id":"0.0-0.0-10.0-2.0-0.5","rt":null,"response":null,"trial_type":"html-keyboard-response","stimulus":"<em>Please wait for 2 seconds...</em>","time_elapsed":79652,"trial_index":43,"dateTime":"2021-11-09T16:31:06.822Z","isRelevant":false},{"internal_node_id":"0.0-0.0-10.0-2.0-0.6","rt":null,"response":null,"trial_type":"html-keyboard-response","stimulus":"<em>Please wait for 1 seconds...</em>","time_elapsed":80653,"trial_index":44,"dateTime":"2021-11-09T16:31:07.824Z","isRelevant":false},{"taskStarted":true,"dateTime":"2021-11-09T18:02:15.301Z","isRelevant":false},{"taskStarted":true,"dateTime":"2021-11-13T00:23:01.716Z","isRelevant":false},{"taskStarted":true,"dateTime":"2021-11-10T16:16:44.250Z","isRelevant":false},{"internal_node_id":"0.0-0.0-1.0","rt":97399,"response":" ","trial_type":"html-keyboard-response","stimulus":"You are now going to complete a training for a task where you will press the space bar for certain numbers. This task is called the n-back. <br> <em>Press the space bar to continue.</em> ","time_elapsed":97405,"trial_index":0,"dateTime":"2021-11-10T16:18:21.655Z","isRelevant":false},{"internal_node_id":"0.0-0.0-2.0","rt":5087,"response":" ","trial_type":"html-keyboard-response","stimulus":"This task consists of three different parts. In each part you will see a series of numbers, one at a time. The numbers will be presented in the center of the screen. <br> <em>Press the space bar to continue.</em> ","time_elapsed":102492,"trial_index":1,"dateTime":"2021-11-10T16:18:26.742Z","isRelevant":false},{"internal_node_id":"0.0-0.0-3.0","rt":3919,"response":" ","trial_type":"html-keyboard-response","stimulus":"This first task is super simple - you should just press the space bar whenever you see a '1'. Let's give it a try. <br> <em>Press the space bar to continue.</em> ","time_elapsed":106412,"trial_index":2,"dateTime":"2021-11-10T16:18:30.662Z","isRelevant":false},{"internal_node_id":"0.0-0.0-4.0-0.0","rt":null,"response":null,"trial_type":"html-keyboard-response","stimulus":"<div class=\"n-back-cue-title\">Zero-Back</div> <table class=\"n-back-cue-table\"> <td>6</td> <td class=\"n-back-cue-target n-back-cue-highlight\">1</td> <td>7</td> </table> ","time_elapsed":108422,"trial_index":3,"dateTime":"2021-11-10T16:18:32.672Z","isRelevant":false},{"sequence":["6","1","9"],"internal_node_id":"0.0-0.0-4.0-1.0","trial_type":"n-back","time_elapsed":113833,"missedIndices":[],"trial_index":4,"responses":[{"time_from_start":2173,"index":1,"time_from_focus":370,"correct":true}],"n":0,"dateTime":"2021-11-10T16:18:38.083Z","isRelevant":false},{"internal_node_id":"0.0-0.0-4.0-2.0-0.0","rt":null,"response":null,"trial_type":"html-keyboard-response","stimulus":"<em>Please wait for 7 seconds...</em>","time_elapsed":114835,"trial_index":5,"dateTime":"2021-11-10T16:18:39.085Z","isRelevant":false},{"internal_node_id":"0.0-0.0-4.0-2.0-0.1","rt":null,"response":null,"trial_type":"html-keyboard-response","stimulus":"<em>Please wait for 6 seconds...</em>","time_elapsed":115839,"trial_index":6,"dateTime":"2021-11-10T16:18:40.089Z","isRelevant":false},{"internal_node_id":"0.0-0.0-4.0-2.0-0.2","rt":null,"response":null,"trial_type":"html-keyboard-response","stimulus":"<em>Please wait for 5 seconds...</em>","time_elapsed":116841,"trial_index":7,"dateTime":"2021-11-10T16:18:41.091Z","isRelevant":false},{"internal_node_id":"0.0-0.0-4.0-2.0-0.3","rt":null,"response":null,"trial_type":"html-keyboard-response","stimulus":"<em>Please wait for 4 seconds...</em>","time_elapsed":117844,"trial_index":8,"dateTime":"2021-11-10T16:18:42.094Z","isRelevant":false},{"internal_node_id":"0.0-0.0-4.0-2.0-0.4","rt":null,"response":null,"trial_type":"html-keyboard-response","stimulus":"<em>Please wait for 3 seconds...</em>","time_elapsed":118845,"trial_index":9,"dateTime":"2021-11-10T16:18:43.096Z","isRelevant":false},{"internal_node_id":"0.0-0.0-4.0-2.0-0.5","rt":null,"response":null,"trial_type":"html-keyboard-response","stimulus":"<em>Please wait for 2 seconds...</em>","time_elapsed":119848,"trial_index":10,"dateTime":"2021-11-10T16:18:44.098Z","isRelevant":false},{"internal_node_id":"0.0-0.0-4.0-2.0-0.6","rt":null,"response":null,"trial_type":"html-keyboard-response","stimulus":"<em>Please wait for 1 seconds...</em>","time_elapsed":120850,"trial_index":11,"dateTime":"2021-11-10T16:18:45.100Z","isRelevant":false},{"internal_node_id":"0.0-0.0-5.0","rt":7826,"response":" ","trial_type":"html-keyboard-response","stimulus":"That's great! This simple task is called the zero-back task because it doesn't require you to think back and compare any digits. <br> <br> In contrast, the next two tasks do require some memory. Ready to try the next one? <br> <br> <em>Press the space bar to continue.</em> ","time_elapsed":128677,"trial_index":12,"dateTime":"2021-11-10T16:18:52.927Z","isRelevant":false},{"internal_node_id":"0.0-0.0-6.0","rt":24543,"response":" ","trial_type":"html-keyboard-response","stimulus":"In the third part of this task, your job is to press the space bar when the number on the screen is the same as the number shown two numbers before it. <br> <br> For example, if you saw \"5, 7, 7\", you would press the space bar when the second 7 is on the screen. Let's give it a try. <br> <br> <em>Press the space bar to continue.</em> ","time_elapsed":153222,"trial_index":13,"dateTime":"2021-11-10T16:19:17.472Z","isRelevant":false},{"internal_node_id":"0.0-0.0-7.0-0.0","rt":null,"response":null,"trial_type":"html-keyboard-response","stimulus":"<div class=\"n-back-cue-title\">One-Back</div> <table class=\"n-back-cue-table\"> <td>5</td> <td class=\"n-back-cue-highlight\">7</td> <td class=\"n-back-cue-target n-back-cue-highlight\">7</td> </table> ","time_elapsed":155225,"trial_index":14,"dateTime":"2021-11-10T16:19:19.476Z","isRelevant":false},{"sequence":["8","2","2"],"internal_node_id":"0.0-0.0-7.0-1.0","trial_type":"n-back","time_elapsed":160632,"missedIndices":[],"trial_index":15,"responses":[{"time_from_start":4042,"index":2,"time_from_focus":437,"correct":true}],"n":1,"dateTime":"2021-11-10T16:19:24.883Z","isRelevant":false},{"internal_node_id":"0.0-0.0-7.0-2.0-0.0","rt":null,"response":null,"trial_type":"html-keyboard-response","stimulus":"<em>Please wait for 7 seconds...</em>","time_elapsed":161635,"trial_index":16,"dateTime":"2021-11-10T16:19:25.886Z","isRelevant":false},{"internal_node_id":"0.0-0.0-7.0-2.0-0.1","rt":null,"response":null,"trial_type":"html-keyboard-response","stimulus":"<em>Please wait for 6 seconds...</em>","time_elapsed":162639,"trial_index":17,"dateTime":"2021-11-10T16:19:26.889Z","isRelevant":false},{"internal_node_id":"0.0-0.0-7.0-2.0-0.2","rt":null,"response":null,"trial_type":"html-keyboard-response","stimulus":"<em>Please wait for 5 seconds...</em>","time_elapsed":163642,"trial_index":18,"dateTime":"2021-11-10T16:19:27.892Z","isRelevant":false},{"internal_node_id":"0.0-0.0-7.0-2.0-0.3","rt":null,"response":null,"trial_type":"html-keyboard-response","stimulus":"<em>Please wait for 4 seconds...</em>","time_elapsed":164645,"trial_index":19,"dateTime":"2021-11-10T16:19:28.896Z","isRelevant":false},{"internal_node_id":"0.0-0.0-7.0-2.0-0.4","rt":null,"response":null,"trial_type":"html-keyboard-response","stimulus":"<em>Please wait for 3 seconds...</em>","time_elapsed":165648,"trial_index":20,"dateTime":"2021-11-10T16:19:29.898Z","isRelevant":false},{"internal_node_id":"0.0-0.0-7.0-2.0-0.5","rt":null,"response":null,"trial_type":"html-keyboard-response","stimulus":"<em>Please wait for 2 seconds...</em>","time_elapsed":166653,"trial_index":21,"dateTime":"2021-11-10T16:19:30.903Z","isRelevant":false},{"internal_node_id":"0.0-0.0-7.0-2.0-0.6","rt":null,"response":null,"trial_type":"html-keyboard-response","stimulus":"<em>Please wait for 1 seconds...</em>","time_elapsed":167655,"trial_index":22,"dateTime":"2021-11-10T16:19:31.905Z","isRelevant":false},{"internal_node_id":"0.0-0.0-8.0","rt":2590,"response":" ","trial_type":"html-keyboard-response","stimulus":"That's great! This task is called the one-back task because you have to remember the number shown one position back and compare it to the current number. <br> <br> The next task will require you to remember slightly more items. Ready to try the next one? <br> <br> <em>Press the space bar to continue.</em> ","time_elapsed":170247,"trial_index":23,"dateTime":"2021-11-10T16:19:34.497Z","isRelevant":false},{"internal_node_id":"0.0-0.0-9.0","rt":5342,"response":" ","trial_type":"html-keyboard-response","stimulus":"In the second part of this task, your job is to press the space bar when the number on the screen is the same as the number immediately before the number currently on the screen. <br> <br> For example, if you saw \"6, 3, 6\", you would press the space bar when the second 6 is on the screen. Let's give it a try. <br> <br> <em>Press the space bar to continue.</em> ","time_elapsed":175590,"trial_index":24,"dateTime":"2021-11-10T16:19:39.840Z","isRelevant":false},{"internal_node_id":"0.0-0.0-10.0-0.0","rt":null,"response":null,"trial_type":"html-keyboard-response","stimulus":"<div class=\"n-back-cue-title\">Two-Back</div> <table class=\"n-back-cue-table\"> <td class=\"n-back-cue-highlight\">6</td> <td>3</td> <td class=\"n-back-cue-target n-back-cue-highlight\">6</td> </table> ","time_elapsed":177594,"trial_index":25,"dateTime":"2021-11-10T16:19:41.844Z","isRelevant":false},{"sequence":["6","1","6"],"internal_node_id":"0.0-0.0-10.0-1.0","trial_type":"n-back","time_elapsed":183001,"missedIndices":[],"trial_index":26,"responses":[{"time_from_start":4155,"index":2,"time_from_focus":551,"correct":true}],"n":2,"dateTime":"2021-11-10T16:19:47.251Z","isRelevant":false},{"internal_node_id":"0.0-0.0-10.0-2.0-0.0","rt":null,"response":null,"trial_type":"html-keyboard-response","stimulus":"<em>Please wait for 7 seconds...</em>","time_elapsed":184003,"trial_index":27,"dateTime":"2021-11-10T16:19:48.253Z","isRelevant":false},{"internal_node_id":"0.0-0.0-10.0-2.0-0.1","rt":null,"response":null,"trial_type":"html-keyboard-response","stimulus":"<em>Please wait for 6 seconds...</em>","time_elapsed":185005,"trial_index":28,"dateTime":"2021-11-10T16:19:49.255Z","isRelevant":false},{"internal_node_id":"0.0-0.0-10.0-2.0-0.2","rt":null,"response":null,"trial_type":"html-keyboard-response","stimulus":"<em>Please wait for 5 seconds...</em>","time_elapsed":186008,"trial_index":29,"dateTime":"2021-11-10T16:19:50.258Z","isRelevant":false},{"internal_node_id":"0.0-0.0-10.0-2.0-0.3","rt":null,"response":null,"trial_type":"html-keyboard-response","stimulus":"<em>Please wait for 4 seconds...</em>","time_elapsed":187008,"trial_index":30,"dateTime":"2021-11-10T16:19:51.258Z","isRelevant":false},{"internal_node_id":"0.0-0.0-10.0-2.0-0.4","rt":null,"response":null,"trial_type":"html-keyboard-response","stimulus":"<em>Please wait for 3 seconds...</em>","time_elapsed":188011,"trial_index":31,"dateTime":"2021-11-10T16:19:52.261Z","isRelevant":false},{"internal_node_id":"0.0-0.0-10.0-2.0-0.5","rt":null,"response":null,"trial_type":"html-keyboard-response","stimulus":"<em>Please wait for 2 seconds...</em>","time_elapsed":189012,"trial_index":32,"dateTime":"2021-11-10T16:19:53.263Z","isRelevant":false},{"internal_node_id":"0.0-0.0-10.0-2.0-0.6","rt":null,"response":null,"trial_type":"html-keyboard-response","stimulus":"<em>Please wait for 1 seconds...</em>","time_elapsed":190017,"trial_index":33,"dateTime":"2021-11-10T16:19:54.267Z","isRelevant":false},{"internal_node_id":"0.0-0.0-11.0","rt":4908,"response":" ","trial_type":"html-keyboard-response","stimulus":"That's great! This task is called the two-back task because you have to remember the number shown two positions back and compare it to the current number. <br> <br> You will now practice the full-length versions of these tasks. Please press the space bar. <br> <br> <em>Press the space bar to continue.</em> ","time_elapsed":194927,"trial_index":34,"dateTime":"2021-11-10T16:19:59.177Z","isRelevant":false},{"internal_node_id":"0.0-0.0-12.0","rt":9294,"response":" ","trial_type":"html-keyboard-response","stimulus":"You will first practice a full-length zero-back task. This is the image you will see before the zero-back is about to start. <br> <div class=\"n-back-cue-title\">Zero-Back</div> <table class=\"n-back-cue-table\"> <td>6</td> <td class=\"n-back-cue-target n-back-cue-highlight\">1</td> <td>7</td> </table> You will always press the space bar for the number 1 during the zero-back task. <br> <br> <em>Press the space bar to continue.</em> ","time_elapsed":204223,"trial_index":35,"dateTime":"2021-11-10T16:20:08.473Z","isRelevant":false},{"internal_node_id":"0.0-0.0-13.0","rt":null,"response":null,"trial_type":"html-keyboard-response","stimulus":"<div class=\"n-back-cue-title\">Zero-Back</div> <table class=\"n-back-cue-table\"> <td>6</td> <td class=\"n-back-cue-target n-back-cue-highlight\">1</td> <td>7</td> </table> ","time_elapsed":206227,"trial_index":36,"dateTime":"2021-11-10T16:20:10.477Z","isRelevant":false},{"sequence":["7","2","6","2","1","1","8","6","1","6","6","2","8","3","1"],"internal_node_id":"0.0-0.0-14.0","trial_type":"n-back","time_elapsed":233256,"missedIndices":[],"trial_index":37,"responses":[{"time_from_start":7658,"index":4,"time_from_focus":451,"correct":true},{"time_from_start":9610,"index":5,"time_from_focus":601,"correct":true},{"time_from_start":14882,"index":8,"time_from_focus":468,"correct":true},{"time_from_start":25650,"index":14,"time_from_focus":425,"correct":true}],"n":0,"dateTime":"2021-11-10T16:20:37.507Z","isRelevant":false},{"internal_node_id":"0.0-0.0-15.0-0.0","rt":null,"response":null,"trial_type":"html-keyboard-response","stimulus":"<em>Please wait for 7 seconds...</em>","time_elapsed":234260,"trial_index":38,"dateTime":"2021-11-10T16:20:38.510Z","isRelevant":false},{"internal_node_id":"0.0-0.0-15.0-0.1","rt":null,"response":null,"trial_type":"html-keyboard-response","stimulus":"<em>Please wait for 6 seconds...</em>","time_elapsed":235262,"trial_index":39,"dateTime":"2021-11-10T16:20:39.512Z","isRelevant":false},{"internal_node_id":"0.0-0.0-15.0-0.2","rt":null,"response":null,"trial_type":"html-keyboard-response","stimulus":"<em>Please wait for 5 seconds...</em>","time_elapsed":236266,"trial_index":40,"dateTime":"2021-11-10T16:20:40.516Z","isRelevant":false},{"internal_node_id":"0.0-0.0-15.0-0.3","rt":null,"response":null,"trial_type":"html-keyboard-response","stimulus":"<em>Please wait for 4 seconds...</em>","time_elapsed":237268,"trial_index":41,"dateTime":"2021-11-10T16:20:41.518Z","isRelevant":false},{"internal_node_id":"0.0-0.0-15.0-0.4","rt":null,"response":null,"trial_type":"html-keyboard-response","stimulus":"<em>Please wait for 3 seconds...</em>","time_elapsed":238270,"trial_index":42,"dateTime":"2021-11-10T16:20:42.520Z","isRelevant":false},{"internal_node_id":"0.0-0.0-15.0-0.5","rt":null,"response":null,"trial_type":"html-keyboard-response","stimulus":"<em>Please wait for 2 seconds...</em>","time_elapsed":239272,"trial_index":43,"dateTime":"2021-11-10T16:20:43.523Z","isRelevant":false},{"internal_node_id":"0.0-0.0-15.0-0.6","rt":null,"response":null,"trial_type":"html-keyboard-response","stimulus":"<em>Please wait for 1 seconds...</em>","time_elapsed":240277,"trial_index":44,"dateTime":"2021-11-10T16:20:44.527Z","isRelevant":false},{"internal_node_id":"0.0-0.0-16.0","rt":15306,"response":" ","trial_type":"html-keyboard-response","stimulus":"Great job! Now you will practice a full-length one-back task. You will press the space bar for the target number. The target number can be any number between 1-9. During the one-back task you will always press the space bar when the number currently on the screen is the same as the number shown immediately before. <br> <div class=\"n-back-cue-title\">One-Back</div> <table class=\"n-back-cue-table\"> <td>5</td> <td class=\"n-back-cue-highlight\">7</td> <td class=\"n-back-cue-target n-back-cue-highlight\">7</td> </table> <em>Press the space bar to continue.</em> ","time_elapsed":255585,"trial_index":45,"dateTime":"2021-11-10T16:20:59.835Z","isRelevant":false},{"internal_node_id":"0.0-0.0-17.0","rt":null,"response":null,"trial_type":"html-keyboard-response","stimulus":"<div class=\"n-back-cue-title\">One-Back</div> <table class=\"n-back-cue-table\"> <td>5</td> <td class=\"n-back-cue-highlight\">7</td> <td class=\"n-back-cue-target n-back-cue-highlight\">7</td> </table> ","time_elapsed":257587,"trial_index":46,"dateTime":"2021-11-10T16:21:01.837Z","isRelevant":false},{"sequence":["2","5","5","5","4","7","8","3","4","6","2","2","2","7","3"],"internal_node_id":"0.0-0.0-18.0","trial_type":"n-back","time_elapsed":284610,"missedIndices":[],"trial_index":47,"responses":[{"time_from_start":4221,"index":2,"time_from_focus":617,"correct":true},{"time_from_start":5933,"index":3,"time_from_focus":525,"correct":true},{"time_from_start":20429,"index":11,"time_from_focus":610,"correct":true},{"time_from_start":22172,"index":12,"time_from_focus":553,"correct":true}],"n":1,"dateTime":"2021-11-10T16:21:28.860Z","isRelevant":false},{"internal_node_id":"0.0-0.0-19.0-0.0","rt":null,"response":null,"trial_type":"html-keyboard-response","stimulus":"<em>Please wait for 7 seconds...</em>","time_elapsed":285612,"trial_index":48,"dateTime":"2021-11-10T16:21:29.863Z","isRelevant":false},{"internal_node_id":"0.0-0.0-19.0-0.1","rt":null,"response":null,"trial_type":"html-keyboard-response","stimulus":"<em>Please wait for 6 seconds...</em>","time_elapsed":286616,"trial_index":49,"dateTime":"2021-11-10T16:21:30.866Z","isRelevant":false},{"internal_node_id":"0.0-0.0-19.0-0.2","rt":null,"response":null,"trial_type":"html-keyboard-response","stimulus":"<em>Please wait for 5 seconds...</em>","time_elapsed":287620,"trial_index":50,"dateTime":"2021-11-10T16:21:31.870Z","isRelevant":false},{"internal_node_id":"0.0-0.0-19.0-0.3","rt":null,"response":null,"trial_type":"html-keyboard-response","stimulus":"<em>Please wait for 4 seconds...</em>","time_elapsed":288624,"trial_index":51,"dateTime":"2021-11-10T16:21:32.874Z","isRelevant":false},{"internal_node_id":"0.0-0.0-19.0-0.4","rt":null,"response":null,"trial_type":"html-keyboard-response","stimulus":"<em>Please wait for 3 seconds...</em>","time_elapsed":289626,"trial_index":52,"dateTime":"2021-11-10T16:21:33.876Z","isRelevant":false},{"internal_node_id":"0.0-0.0-19.0-0.5","rt":null,"response":null,"trial_type":"html-keyboard-response","stimulus":"<em>Please wait for 2 seconds...</em>","time_elapsed":290629,"trial_index":53,"dateTime":"2021-11-10T16:21:34.879Z","isRelevant":false},{"internal_node_id":"0.0-0.0-19.0-0.6","rt":null,"response":null,"trial_type":"html-keyboard-response","stimulus":"<em>Please wait for 1 seconds...</em>","time_elapsed":291633,"trial_index":54,"dateTime":"2021-11-10T16:21:35.883Z","isRelevant":false},{"internal_node_id":"0.0-0.0-20.0","rt":5128,"response":" ","trial_type":"html-keyboard-response","stimulus":"Great job! Now you will practice a full-length two-back task. You will press the space bar for the target number. The target number can be any number between 1-9. During the two-back task you will always press the space bar when the number currently on the screen is the same as the number shown two numbers back. <br> <div class=\"n-back-cue-title\">Two-Back</div> <table class=\"n-back-cue-table\"> <td class=\"n-back-cue-highlight\">6</td> <td>3</td> <td class=\"n-back-cue-target n-back-cue-highlight\">6</td> </table> <em>Press the space bar to continue.</em> ","time_elapsed":296762,"trial_index":55,"dateTime":"2021-11-10T16:21:41.012Z","isRelevant":false},{"internal_node_id":"0.0-0.0-21.0","rt":null,"response":null,"trial_type":"html-keyboard-response","stimulus":"<div class=\"n-back-cue-title\">Two-Back</div> <table class=\"n-back-cue-table\"> <td class=\"n-back-cue-highlight\">6</td> <td>3</td> <td class=\"n-back-cue-target n-back-cue-highlight\">6</td> </table> ","time_elapsed":298765,"trial_index":56,"dateTime":"2021-11-10T16:21:43.016Z","isRelevant":false},{"sequence":["1","9","6","3","4","5","4","5","8","8","7","8","8","5","8"],"internal_node_id":"0.0-0.0-22.0","trial_type":"n-back","time_elapsed":325789,"missedIndices":[6],"trial_index":57,"responses":[{"time_from_start":13043,"index":7,"time_from_focus":434,"correct":true},{"time_from_start":17018,"index":9,"time_from_focus":805,"correct":false},{"time_from_start":20578,"index":11,"time_from_focus":763,"correct":true},{"time_from_start":22378,"index":12,"time_from_focus":759,"correct":false},{"time_from_start":26315,"index":14,"time_from_focus":1095,"correct":true}],"n":2,"dateTime":"2021-11-10T16:22:10.040Z","isRelevant":false},{"internal_node_id":"0.0-0.0-23.0-0.0","rt":null,"response":null,"trial_type":"html-keyboard-response","stimulus":"<em>Please wait for 7 seconds...</em>","time_elapsed":326791,"trial_index":58,"dateTime":"2021-11-10T16:22:11.041Z","isRelevant":false},{"internal_node_id":"0.0-0.0-23.0-0.1","rt":null,"response":null,"trial_type":"html-keyboard-response","stimulus":"<em>Please wait for 6 seconds...</em>","time_elapsed":327797,"trial_index":59,"dateTime":"2021-11-10T16:22:12.047Z","isRelevant":false},{"internal_node_id":"0.0-0.0-23.0-0.2","rt":null,"response":null,"trial_type":"html-keyboard-response","stimulus":"<em>Please wait for 5 seconds...</em>","time_elapsed":328799,"trial_index":60,"dateTime":"2021-11-10T16:22:13.049Z","isRelevant":false},{"internal_node_id":"0.0-0.0-23.0-0.3","rt":null,"response":null,"trial_type":"html-keyboard-response","stimulus":"<em>Please wait for 4 seconds...</em>","time_elapsed":329801,"trial_index":61,"dateTime":"2021-11-10T16:22:14.051Z","isRelevant":false},{"internal_node_id":"0.0-0.0-23.0-0.4","rt":null,"response":null,"trial_type":"html-keyboard-response","stimulus":"<em>Please wait for 3 seconds...</em>","time_elapsed":330805,"trial_index":62,"dateTime":"2021-11-10T16:22:15.055Z","isRelevant":false},{"internal_node_id":"0.0-0.0-23.0-0.5","rt":null,"response":null,"trial_type":"html-keyboard-response","stimulus":"<em>Please wait for 2 seconds...</em>","time_elapsed":331811,"trial_index":63,"dateTime":"2021-11-10T16:22:16.061Z","isRelevant":false},{"internal_node_id":"0.0-0.0-23.0-0.6","rt":null,"response":null,"trial_type":"html-keyboard-response","stimulus":"<em>Please wait for 1 seconds...</em>","time_elapsed":332813,"trial_index":64,"dateTime":"2021-11-10T16:22:17.063Z","isRelevant":false},{"internal_node_id":"0.0-0.0-24.0","rt":7837,"response":" ","trial_type":"html-keyboard-response","stimulus":"We will now begin the n-back task. You will alternate between zero-back, one-back, and two-back tasks. <br> <em>Press the space bar to continue.</em> ","time_elapsed":340651,"trial_index":65,"dateTime":"2021-11-10T16:22:24.901Z","isRelevant":false},{"internal_node_id":"0.0-0.0-25.0","rt":null,"response":null,"trial_type":"html-keyboard-response","stimulus":"<div class=\"n-back-cue-title\">Zero-Back</div> <table class=\"n-back-cue-table\"> <td>6</td> <td class=\"n-back-cue-target n-back-cue-highlight\">1</td> <td>7</td> </table> ","time_elapsed":342654,"trial_index":66,"dateTime":"2021-11-10T16:22:26.904Z","isRelevant":false},{"sequence":["7","1","6","2","8","9","1","3","9","2","3","1","1","6","7"],"internal_node_id":"0.0-0.0-26.0","trial_type":"n-back","time_elapsed":369674,"missedIndices":[],"trial_index":67,"responses":[{"time_from_start":2211,"index":1,"time_from_focus":411,"correct":true},{"time_from_start":11356,"index":6,"time_from_focus":546,"correct":true},{"time_from_start":20323,"index":11,"time_from_focus":510,"correct":true},{"time_from_start":22452,"index":12,"time_from_focus":839,"correct":true}],"n":0,"dateTime":"2021-11-10T16:22:53.924Z","isRelevant":true},{"internal_node_id":"0.0-0.0-27.0-0.0","rt":null,"response":null,"trial_type":"html-keyboard-response","stimulus":"<em>Please wait for 7 seconds...</em>","time_elapsed":370676,"trial_index":68,"dateTime":"2021-11-10T16:22:54.926Z","isRelevant":false},{"internal_node_id":"0.0-0.0-27.0-0.1","rt":null,"response":null,"trial_type":"html-keyboard-response","stimulus":"<em>Please wait for 6 seconds...</em>","time_elapsed":371682,"trial_index":69,"dateTime":"2021-11-10T16:22:55.932Z","isRelevant":false},{"internal_node_id":"0.0-0.0-27.0-0.2","rt":null,"response":null,"trial_type":"html-keyboard-response","stimulus":"<em>Please wait for 5 seconds...</em>","time_elapsed":372685,"trial_index":70,"dateTime":"2021-11-10T16:22:56.935Z","isRelevant":false},{"internal_node_id":"0.0-0.0-27.0-0.3","rt":null,"response":null,"trial_type":"html-keyboard-response","stimulus":"<em>Please wait for 4 seconds...</em>","time_elapsed":373689,"trial_index":71,"dateTime":"2021-11-10T16:22:57.939Z","isRelevant":false},{"internal_node_id":"0.0-0.0-27.0-0.4","rt":null,"response":null,"trial_type":"html-keyboard-response","stimulus":"<em>Please wait for 3 seconds...</em>","time_elapsed":374693,"trial_index":72,"dateTime":"2021-11-10T16:22:58.943Z","isRelevant":false},{"internal_node_id":"0.0-0.0-27.0-0.5","rt":null,"response":null,"trial_type":"html-keyboard-response","stimulus":"<em>Please wait for 2 seconds...</em>","time_elapsed":375696,"trial_index":73,"dateTime":"2021-11-10T16:22:59.946Z","isRelevant":false},{"internal_node_id":"0.0-0.0-27.0-0.6","rt":null,"response":null,"trial_type":"html-keyboard-response","stimulus":"<em>Please wait for 1 seconds...</em>","time_elapsed":376699,"trial_index":74,"dateTime":"2021-11-10T16:23:00.949Z","isRelevant":false},{"internal_node_id":"0.0-0.0-28.0","rt":null,"response":null,"trial_type":"html-keyboard-response","stimulus":"<div class=\"n-back-cue-title\">One-Back</div> <table class=\"n-back-cue-table\"> <td>5</td> <td class=\"n-back-cue-highlight\">7</td> <td class=\"n-back-cue-target n-back-cue-highlight\">7</td> </table> ","time_elapsed":378701,"trial_index":75,"dateTime":"2021-11-10T16:23:02.951Z","isRelevant":false},{"sequence":["6","5","6","3","9","5","5","5","1","9","9","6","4","5","5"],"internal_node_id":"0.0-0.0-29.0","trial_type":"n-back","time_elapsed":405727,"missedIndices":[],"trial_index":76,"responses":[{"time_from_start":4414,"index":2,"time_from_focus":811,"correct":false},{"time_from_start":11254,"index":6,"time_from_focus":445,"correct":true},{"time_from_start":13078,"index":7,"time_from_focus":469,"correct":true},{"time_from_start":18718,"index":10,"time_from_focus":701,"correct":true},{"time_from_start":25798,"index":14,"time_from_focus":574,"correct":true}],"n":1,"dateTime":"2021-11-10T16:23:29.977Z","isRelevant":true},{"internal_node_id":"0.0-0.0-30.0-0.0","rt":null,"response":null,"trial_type":"html-keyboard-response","stimulus":"<em>Please wait for 7 seconds...</em>","time_elapsed":406730,"trial_index":77,"dateTime":"2021-11-10T16:23:30.980Z","isRelevant":false},{"internal_node_id":"0.0-0.0-30.0-0.1","rt":null,"response":null,"trial_type":"html-keyboard-response","stimulus":"<em>Please wait for 6 seconds...</em>","time_elapsed":407732,"trial_index":78,"dateTime":"2021-11-10T16:23:31.983Z","isRelevant":false},{"internal_node_id":"0.0-0.0-30.0-0.2","rt":null,"response":null,"trial_type":"html-keyboard-response","stimulus":"<em>Please wait for 5 seconds...</em>","time_elapsed":408738,"trial_index":79,"dateTime":"2021-11-10T16:23:32.988Z","isRelevant":false},{"internal_node_id":"0.0-0.0-30.0-0.3","rt":null,"response":null,"trial_type":"html-keyboard-response","stimulus":"<em>Please wait for 4 seconds...</em>","time_elapsed":409741,"trial_index":80,"dateTime":"2021-11-10T16:23:33.991Z","isRelevant":false},{"internal_node_id":"0.0-0.0-30.0-0.4","rt":null,"response":null,"trial_type":"html-keyboard-response","stimulus":"<em>Please wait for 3 seconds...</em>","time_elapsed":410743,"trial_index":81,"dateTime":"2021-11-10T16:23:34.994Z","isRelevant":false},{"internal_node_id":"0.0-0.0-30.0-0.5","rt":null,"response":null,"trial_type":"html-keyboard-response","stimulus":"<em>Please wait for 2 seconds...</em>","time_elapsed":411745,"trial_index":82,"dateTime":"2021-11-10T16:23:35.995Z","isRelevant":false},{"internal_node_id":"0.0-0.0-30.0-0.6","rt":null,"response":null,"trial_type":"html-keyboard-response","stimulus":"<em>Please wait for 1 seconds...</em>","time_elapsed":412749,"trial_index":83,"dateTime":"2021-11-10T16:23:37.000Z","isRelevant":false},{"internal_node_id":"0.0-0.0-31.0","rt":null,"response":null,"trial_type":"html-keyboard-response","stimulus":"<div class=\"n-back-cue-title\">Two-Back</div> <table class=\"n-back-cue-table\"> <td class=\"n-back-cue-highlight\">6</td> <td>3</td> <td class=\"n-back-cue-target n-back-cue-highlight\">6</td> </table> ","time_elapsed":414751,"trial_index":84,"dateTime":"2021-11-10T16:23:39.002Z","isRelevant":false},{"sequence":["8","3","8","2","9","2","9","8","9","9","8","1","5","5","3"],"internal_node_id":"0.0-0.0-32.0","trial_type":"n-back","time_elapsed":441770,"missedIndices":[],"trial_index":85,"responses":[{"time_from_start":206,"index":0,"time_from_focus":206,"correct":false},{"time_from_start":4125,"index":2,"time_from_focus":522,"correct":true},{"time_from_start":9686,"index":5,"time_from_focus":679,"correct":true},{"time_from_start":11590,"index":6,"time_from_focus":782,"correct":true},{"time_from_start":15117,"index":8,"time_from_focus":707,"correct":true},{"time_from_start":16966,"index":9,"time_from_focus":755,"correct":false}],"n":2,"dateTime":"2021-11-10T16:24:06.020Z","isRelevant":true},{"internal_node_id":"0.0-0.0-33.0-0.0","rt":null,"response":null,"trial_type":"html-keyboard-response","stimulus":"<em>Please wait for 7 seconds...</em>","time_elapsed":442775,"trial_index":86,"dateTime":"2021-11-10T16:24:07.025Z","isRelevant":false},{"internal_node_id":"0.0-0.0-33.0-0.1","rt":null,"response":null,"trial_type":"html-keyboard-response","stimulus":"<em>Please wait for 6 seconds...</em>","time_elapsed":443777,"trial_index":87,"dateTime":"2021-11-10T16:24:08.027Z","isRelevant":false},{"internal_node_id":"0.0-0.0-33.0-0.2","rt":null,"response":null,"trial_type":"html-keyboard-response","stimulus":"<em>Please wait for 5 seconds...</em>","time_elapsed":444781,"trial_index":88,"dateTime":"2021-11-10T16:24:09.032Z","isRelevant":false},{"internal_node_id":"0.0-0.0-33.0-0.3","rt":null,"response":null,"trial_type":"html-keyboard-response","stimulus":"<em>Please wait for 4 seconds...</em>","time_elapsed":445783,"trial_index":89,"dateTime":"2021-11-10T16:24:10.034Z","isRelevant":false},{"internal_node_id":"0.0-0.0-33.0-0.4","rt":null,"response":null,"trial_type":"html-keyboard-response","stimulus":"<em>Please wait for 3 seconds...</em>","time_elapsed":446787,"trial_index":90,"dateTime":"2021-11-10T16:24:11.038Z","isRelevant":false},{"internal_node_id":"0.0-0.0-33.0-0.5","rt":null,"response":null,"trial_type":"html-keyboard-response","stimulus":"<em>Please wait for 2 seconds...</em>","time_elapsed":447793,"trial_index":91,"dateTime":"2021-11-10T16:24:12.043Z","isRelevant":false},{"internal_node_id":"0.0-0.0-33.0-0.6","rt":null,"response":null,"trial_type":"html-keyboard-response","stimulus":"<em>Please wait for 1 seconds...</em>","time_elapsed":448796,"trial_index":92,"dateTime":"2021-11-10T16:24:13.046Z","isRelevant":false},{"internal_node_id":"0.0-0.0-34.0","rt":null,"response":null,"trial_type":"html-keyboard-response","stimulus":"<div class=\"n-back-cue-title\">Zero-Back</div> <table class=\"n-back-cue-table\"> <td>6</td> <td class=\"n-back-cue-target n-back-cue-highlight\">1</td> <td>7</td> </table> ","time_elapsed":450799,"trial_index":93,"dateTime":"2021-11-10T16:24:15.049Z","isRelevant":false},{"sequence":["9","1","7","6","5","9","3","6","1","1","9","9","4","5","1"],"internal_node_id":"0.0-0.0-35.0","trial_type":"n-back","time_elapsed":477816,"missedIndices":[],"trial_index":94,"responses":[{"time_from_start":2279,"index":1,"time_from_focus":479,"correct":true},{"time_from_start":14943,"index":8,"time_from_focus":532,"correct":true},{"time_from_start":16838,"index":9,"time_from_focus":626,"correct":true},{"time_from_start":25654,"index":14,"time_from_focus":439,"correct":true}],"n":0,"dateTime":"2021-11-10T16:24:42.067Z","isRelevant":true},{"internal_node_id":"0.0-0.0-36.0-0.0","rt":null,"response":null,"trial_type":"html-keyboard-response","stimulus":"<em>Please wait for 7 seconds...</em>","time_elapsed":478822,"trial_index":95,"dateTime":"2021-11-10T16:24:43.072Z","isRelevant":false},{"internal_node_id":"0.0-0.0-36.0-0.1","rt":null,"response":null,"trial_type":"html-keyboard-response","stimulus":"<em>Please wait for 6 seconds...</em>","time_elapsed":479824,"trial_index":96,"dateTime":"2021-11-10T16:24:44.074Z","isRelevant":false},{"internal_node_id":"0.0-0.0-36.0-0.2","rt":null,"response":null,"trial_type":"html-keyboard-response","stimulus":"<em>Please wait for 5 seconds...</em>","time_elapsed":480829,"trial_index":97,"dateTime":"2021-11-10T16:24:45.080Z","isRelevant":false},{"internal_node_id":"0.0-0.0-36.0-0.3","rt":null,"response":null,"trial_type":"html-keyboard-response","stimulus":"<em>Please wait for 4 seconds...</em>","time_elapsed":481832,"trial_index":98,"dateTime":"2021-11-10T16:24:46.082Z","isRelevant":false},{"internal_node_id":"0.0-0.0-36.0-0.4","rt":null,"response":null,"trial_type":"html-keyboard-response","stimulus":"<em>Please wait for 3 seconds...</em>","time_elapsed":482836,"trial_index":99,"dateTime":"2021-11-10T16:24:47.088Z","isRelevant":false},{"internal_node_id":"0.0-0.0-36.0-0.5","rt":null,"response":null,"trial_type":"html-keyboard-response","stimulus":"<em>Please wait for 2 seconds...</em>","time_elapsed":483839,"trial_index":100,"dateTime":"2021-11-10T16:24:48.089Z","isRelevant":false},{"internal_node_id":"0.0-0.0-36.0-0.6","rt":null,"response":null,"trial_type":"html-keyboard-response","stimulus":"<em>Please wait for 1 seconds...</em>","time_elapsed":484841,"trial_index":101,"dateTime":"2021-11-10T16:24:49.092Z","isRelevant":false},{"internal_node_id":"0.0-0.0-37.0","rt":null,"response":null,"trial_type":"html-keyboard-response","stimulus":"<div class=\"n-back-cue-title\">One-Back</div> <table class=\"n-back-cue-table\"> <td>5</td> <td class=\"n-back-cue-highlight\">7</td> <td class=\"n-back-cue-target n-back-cue-highlight\">7</td> </table> ","time_elapsed":486848,"trial_index":102,"dateTime":"2021-11-10T16:24:51.099Z","isRelevant":false},{"sequence":["2","4","4","4","4","1","7","7","1","9","5","7","6","4","1"],"internal_node_id":"0.0-0.0-38.0","trial_type":"n-back","time_elapsed":513879,"missedIndices":[],"trial_index":103,"responses":[{"time_from_start":4342,"index":2,"time_from_focus":741,"correct":true},{"time_from_start":6015,"index":3,"time_from_focus":611,"correct":true},{"time_from_start":7782,"index":4,"time_from_focus":578,"correct":true},{"time_from_start":13167,"index":7,"time_from_focus":560,"correct":true}],"n":1,"dateTime":"2021-11-10T16:25:18.129Z","isRelevant":true},{"internal_node_id":"0.0-0.0-39.0-0.0","rt":null,"response":null,"trial_type":"html-keyboard-response","stimulus":"<em>Please wait for 7 seconds...</em>","time_elapsed":514882,"trial_index":104,"dateTime":"2021-11-10T16:25:19.132Z","isRelevant":false},{"internal_node_id":"0.0-0.0-39.0-0.1","rt":null,"response":null,"trial_type":"html-keyboard-response","stimulus":"<em>Please wait for 6 seconds...</em>","time_elapsed":515885,"trial_index":105,"dateTime":"2021-11-10T16:25:20.135Z","isRelevant":false},{"internal_node_id":"0.0-0.0-39.0-0.2","rt":null,"response":null,"trial_type":"html-keyboard-response","stimulus":"<em>Please wait for 5 seconds...</em>","time_elapsed":516887,"trial_index":106,"dateTime":"2021-11-10T16:25:21.138Z","isRelevant":false},{"internal_node_id":"0.0-0.0-39.0-0.3","rt":null,"response":null,"trial_type":"html-keyboard-response","stimulus":"<em>Please wait for 4 seconds...</em>","time_elapsed":517891,"trial_index":107,"dateTime":"2021-11-10T16:25:22.141Z","isRelevant":false},{"internal_node_id":"0.0-0.0-39.0-0.4","rt":null,"response":null,"trial_type":"html-keyboard-response","stimulus":"<em>Please wait for 3 seconds...</em>","time_elapsed":518894,"trial_index":108,"dateTime":"2021-11-10T16:25:23.144Z","isRelevant":false},{"internal_node_id":"0.0-0.0-39.0-0.5","rt":null,"response":null,"trial_type":"html-keyboard-response","stimulus":"<em>Please wait for 2 seconds...</em>","time_elapsed":519896,"trial_index":109,"dateTime":"2021-11-10T16:25:24.146Z","isRelevant":false},{"internal_node_id":"0.0-0.0-39.0-0.6","rt":null,"response":null,"trial_type":"html-keyboard-response","stimulus":"<em>Please wait for 1 seconds...</em>","time_elapsed":520899,"trial_index":110,"dateTime":"2021-11-10T16:25:25.149Z","isRelevant":false},{"internal_node_id":"0.0-0.0-40.0","rt":null,"response":null,"trial_type":"html-keyboard-response","stimulus":"<div class=\"n-back-cue-title\">Two-Back</div> <table class=\"n-back-cue-table\"> <td class=\"n-back-cue-highlight\">6</td> <td>3</td> <td class=\"n-back-cue-target n-back-cue-highlight\">6</td> </table> ","time_elapsed":522901,"trial_index":111,"dateTime":"2021-11-10T16:25:27.151Z","isRelevant":false},{"sequence":["6","8","4","4","8","6","8","4","2","7","7","7","3","7","3"],"internal_node_id":"0.0-0.0-41.0","trial_type":"n-back","time_elapsed":549937,"missedIndices":[],"trial_index":112,"responses":[{"time_from_start":11742,"index":6,"time_from_focus":929,"correct":true},{"time_from_start":18719,"index":10,"time_from_focus":698,"correct":false},{"time_from_start":20783,"index":11,"time_from_focus":961,"correct":true},{"time_from_start":23934,"index":13,"time_from_focus":508,"correct":true},{"time_from_start":25966,"index":14,"time_from_focus":737,"correct":true}],"n":2,"dateTime":"2021-11-10T16:25:54.187Z","isRelevant":true},{"internal_node_id":"0.0-0.0-42.0-0.0","rt":null,"response":null,"trial_type":"html-keyboard-response","stimulus":"<em>Please wait for 7 seconds...</em>","time_elapsed":550939,"trial_index":113,"dateTime":"2021-11-10T16:25:55.190Z","isRelevant":false},{"internal_node_id":"0.0-0.0-42.0-0.1","rt":null,"response":null,"trial_type":"html-keyboard-response","stimulus":"<em>Please wait for 6 seconds...</em>","time_elapsed":551945,"trial_index":114,"dateTime":"2021-11-10T16:25:56.195Z","isRelevant":false},{"internal_node_id":"0.0-0.0-42.0-0.2","rt":null,"response":null,"trial_type":"html-keyboard-response","stimulus":"<em>Please wait for 5 seconds...</em>","time_elapsed":552950,"trial_index":115,"dateTime":"2021-11-10T16:25:57.201Z","isRelevant":false},{"internal_node_id":"0.0-0.0-42.0-0.3","rt":null,"response":null,"trial_type":"html-keyboard-response","stimulus":"<em>Please wait for 4 seconds...</em>","time_elapsed":553953,"trial_index":116,"dateTime":"2021-11-10T16:25:58.204Z","isRelevant":false},{"internal_node_id":"0.0-0.0-42.0-0.4","rt":null,"response":null,"trial_type":"html-keyboard-response","stimulus":"<em>Please wait for 3 seconds...</em>","time_elapsed":554956,"trial_index":117,"dateTime":"2021-11-10T16:25:59.207Z","isRelevant":false},{"internal_node_id":"0.0-0.0-42.0-0.5","rt":null,"response":null,"trial_type":"html-keyboard-response","stimulus":"<em>Please wait for 2 seconds...</em>","time_elapsed":555962,"trial_index":118,"dateTime":"2021-11-10T16:26:00.212Z","isRelevant":false},{"internal_node_id":"0.0-0.0-42.0-0.6","rt":null,"response":null,"trial_type":"html-keyboard-response","stimulus":"<em>Please wait for 1 seconds...</em>","time_elapsed":556968,"trial_index":119,"dateTime":"2021-11-10T16:26:01.218Z","isRelevant":false},{"internal_node_id":"0.0-0.0-43.0","rt":null,"response":null,"trial_type":"html-keyboard-response","stimulus":"<div class=\"n-back-cue-title\">Zero-Back</div> <table class=\"n-back-cue-table\"> <td>6</td> <td class=\"n-back-cue-target n-back-cue-highlight\">1</td> <td>7</td> </table> ","time_elapsed":558971,"trial_index":120,"dateTime":"2021-11-10T16:26:03.221Z","isRelevant":false},{"sequence":["9","7","1","3","9","5","1","7","9","1","6","2","8","2","1"],"internal_node_id":"0.0-0.0-44.0","trial_type":"n-back","time_elapsed":586001,"missedIndices":[],"trial_index":121,"responses":[{"time_from_start":4035,"index":2,"time_from_focus":433,"correct":true},{"time_from_start":11244,"index":6,"time_from_focus":435,"correct":true},{"time_from_start":16795,"index":9,"time_from_focus":580,"correct":true},{"time_from_start":25652,"index":14,"time_from_focus":426,"correct":true}],"n":0,"dateTime":"2021-11-10T16:26:30.251Z","isRelevant":true},{"internal_node_id":"0.0-0.0-45.0-0.0","rt":null,"response":null,"trial_type":"html-keyboard-response","stimulus":"<em>Please wait for 7 seconds...</em>","time_elapsed":587005,"trial_index":122,"dateTime":"2021-11-10T16:26:31.255Z","isRelevant":false},{"internal_node_id":"0.0-0.0-45.0-0.1","rt":null,"response":null,"trial_type":"html-keyboard-response","stimulus":"<em>Please wait for 6 seconds...</em>","time_elapsed":588009,"trial_index":123,"dateTime":"2021-11-10T16:26:32.260Z","isRelevant":false},{"internal_node_id":"0.0-0.0-45.0-0.2","rt":null,"response":null,"trial_type":"html-keyboard-response","stimulus":"<em>Please wait for 5 seconds...</em>","time_elapsed":589012,"trial_index":124,"dateTime":"2021-11-10T16:26:33.262Z","isRelevant":false},{"internal_node_id":"0.0-0.0-45.0-0.3","rt":null,"response":null,"trial_type":"html-keyboard-response","stimulus":"<em>Please wait for 4 seconds...</em>","time_elapsed":590016,"trial_index":125,"dateTime":"2021-11-10T16:26:34.266Z","isRelevant":false},{"internal_node_id":"0.0-0.0-45.0-0.4","rt":null,"response":null,"trial_type":"html-keyboard-response","stimulus":"<em>Please wait for 3 seconds...</em>","time_elapsed":591018,"trial_index":126,"dateTime":"2021-11-10T16:26:35.268Z","isRelevant":false},{"internal_node_id":"0.0-0.0-45.0-0.5","rt":null,"response":null,"trial_type":"html-keyboard-response","stimulus":"<em>Please wait for 2 seconds...</em>","time_elapsed":592024,"trial_index":127,"dateTime":"2021-11-10T16:26:36.274Z","isRelevant":false},{"internal_node_id":"0.0-0.0-45.0-0.6","rt":null,"response":null,"trial_type":"html-keyboard-response","stimulus":"<em>Please wait for 1 seconds...</em>","time_elapsed":593026,"trial_index":128,"dateTime":"2021-11-10T16:26:37.276Z","isRelevant":false},{"internal_node_id":"0.0-0.0-46.0","rt":null,"response":null,"trial_type":"html-keyboard-response","stimulus":"<div class=\"n-back-cue-title\">One-Back</div> <table class=\"n-back-cue-table\"> <td>5</td> <td class=\"n-back-cue-highlight\">7</td> <td class=\"n-back-cue-target n-back-cue-highlight\">7</td> </table> ","time_elapsed":595031,"trial_index":129,"dateTime":"2021-11-10T16:26:39.281Z","isRelevant":false},{"sequence":["6","3","4","6","7","6","6","4","8","9","6","6","6","6","9"],"internal_node_id":"0.0-0.0-47.0","trial_type":"n-back","time_elapsed":622053,"missedIndices":[11],"trial_index":130,"responses":[{"time_from_start":11241,"index":6,"time_from_focus":430,"correct":true},{"time_from_start":22154,"index":12,"time_from_focus":535,"correct":true},{"time_from_start":23841,"index":13,"time_from_focus":422,"correct":true}],"n":1,"dateTime":"2021-11-10T16:27:06.304Z","isRelevant":true},{"internal_node_id":"0.0-0.0-48.0-0.0","rt":null,"response":null,"trial_type":"html-keyboard-response","stimulus":"<em>Please wait for 7 seconds...</em>","time_elapsed":623059,"trial_index":131,"dateTime":"2021-11-10T16:27:07.309Z","isRelevant":false},{"internal_node_id":"0.0-0.0-48.0-0.1","rt":null,"response":null,"trial_type":"html-keyboard-response","stimulus":"<em>Please wait for 6 seconds...</em>","time_elapsed":624062,"trial_index":132,"dateTime":"2021-11-10T16:27:08.312Z","isRelevant":false},{"internal_node_id":"0.0-0.0-48.0-0.2","rt":null,"response":null,"trial_type":"html-keyboard-response","stimulus":"<em>Please wait for 5 seconds...</em>","time_elapsed":625066,"trial_index":133,"dateTime":"2021-11-10T16:27:09.318Z","isRelevant":false},{"internal_node_id":"0.0-0.0-48.0-0.3","rt":null,"response":null,"trial_type":"html-keyboard-response","stimulus":"<em>Please wait for 4 seconds...</em>","time_elapsed":626069,"trial_index":134,"dateTime":"2021-11-10T16:27:10.320Z","isRelevant":false},{"internal_node_id":"0.0-0.0-48.0-0.4","rt":null,"response":null,"trial_type":"html-keyboard-response","stimulus":"<em>Please wait for 3 seconds...</em>","time_elapsed":627075,"trial_index":135,"dateTime":"2021-11-10T16:27:11.325Z","isRelevant":false},{"internal_node_id":"0.0-0.0-48.0-0.5","rt":null,"response":null,"trial_type":"html-keyboard-response","stimulus":"<em>Please wait for 2 seconds...</em>","time_elapsed":628075,"trial_index":136,"dateTime":"2021-11-10T16:27:12.326Z","isRelevant":false},{"internal_node_id":"0.0-0.0-48.0-0.6","rt":null,"response":null,"trial_type":"html-keyboard-response","stimulus":"<em>Please wait for 1 seconds...</em>","time_elapsed":629081,"trial_index":137,"dateTime":"2021-11-10T16:27:13.331Z","isRelevant":false},{"internal_node_id":"0.0-0.0-49.0","rt":null,"response":null,"trial_type":"html-keyboard-response","stimulus":"<div class=\"n-back-cue-title\">Two-Back</div> <table class=\"n-back-cue-table\"> <td class=\"n-back-cue-highlight\">6</td> <td>3</td> <td class=\"n-back-cue-target n-back-cue-highlight\">6</td> </table> ","time_elapsed":631085,"trial_index":138,"dateTime":"2021-11-10T16:27:15.335Z","isRelevant":false},{"sequence":["4","7","2","8","2","1","3","7","4","7","4","6","4","7","5"],"internal_node_id":"0.0-0.0-50.0","trial_type":"n-back","time_elapsed":658115,"missedIndices":[],"trial_index":139,"responses":[{"time_from_start":7940,"index":4,"time_from_focus":732,"correct":true},{"time_from_start":16957,"index":9,"time_from_focus":739,"correct":true},{"time_from_start":19244,"index":10,"time_from_focus":1225,"correct":true},{"time_from_start":22204,"index":12,"time_from_focus":583,"correct":true}],"n":2,"dateTime":"2021-11-10T16:27:42.366Z","isRelevant":true},{"internal_node_id":"0.0-0.0-51.0-0.0","rt":null,"response":null,"trial_type":"html-keyboard-response","stimulus":"<em>Please wait for 7 seconds...</em>","time_elapsed":659120,"trial_index":140,"dateTime":"2021-11-10T16:27:43.370Z","isRelevant":false},{"internal_node_id":"0.0-0.0-51.0-0.1","rt":null,"response":null,"trial_type":"html-keyboard-response","stimulus":"<em>Please wait for 6 seconds...</em>","time_elapsed":660124,"trial_index":141,"dateTime":"2021-11-10T16:27:44.375Z","isRelevant":false},{"internal_node_id":"0.0-0.0-51.0-0.2","rt":null,"response":null,"trial_type":"html-keyboard-response","stimulus":"<em>Please wait for 5 seconds...</em>","time_elapsed":661128,"trial_index":142,"dateTime":"2021-11-10T16:27:45.378Z","isRelevant":false},{"internal_node_id":"0.0-0.0-51.0-0.3","rt":null,"response":null,"trial_type":"html-keyboard-response","stimulus":"<em>Please wait for 4 seconds...</em>","time_elapsed":662131,"trial_index":143,"dateTime":"2021-11-10T16:27:46.381Z","isRelevant":false},{"internal_node_id":"0.0-0.0-51.0-0.4","rt":null,"response":null,"trial_type":"html-keyboard-response","stimulus":"<em>Please wait for 3 seconds...</em>","time_elapsed":663134,"trial_index":144,"dateTime":"2021-11-10T16:27:47.384Z","isRelevant":false},{"internal_node_id":"0.0-0.0-51.0-0.5","rt":null,"response":null,"trial_type":"html-keyboard-response","stimulus":"<em>Please wait for 2 seconds...</em>","time_elapsed":664139,"trial_index":145,"dateTime":"2021-11-10T16:27:48.389Z","isRelevant":false},{"internal_node_id":"0.0-0.0-51.0-0.6","rt":null,"response":null,"trial_type":"html-keyboard-response","stimulus":"<em>Please wait for 1 seconds...</em>","time_elapsed":665141,"trial_index":146,"dateTime":"2021-11-10T16:27:49.391Z","isRelevant":false},{"internal_node_id":"0.0-0.0-52.0","rt":null,"response":null,"trial_type":"html-keyboard-response","stimulus":"<div class=\"n-back-cue-title\">Zero-Back</div> <table class=\"n-back-cue-table\"> <td>6</td> <td class=\"n-back-cue-target n-back-cue-highlight\">1</td> <td>7</td> </table> ","time_elapsed":667145,"trial_index":147,"dateTime":"2021-11-10T16:27:51.395Z","isRelevant":false},{"sequence":["1","2","6","1","1","8","9","1","2","4","7","8","9","7","2"],"internal_node_id":"0.0-0.0-53.0","trial_type":"n-back","time_elapsed":694172,"missedIndices":[0],"trial_index":148,"responses":[{"time_from_start":5809,"index":3,"time_from_focus":404,"correct":true},{"time_from_start":7648,"index":4,"time_from_focus":441,"correct":true},{"time_from_start":13016,"index":7,"time_from_focus":408,"correct":true}],"n":0,"dateTime":"2021-11-10T16:28:18.422Z","isRelevant":true},{"internal_node_id":"0.0-0.0-54.0-0.0","rt":null,"response":null,"trial_type":"html-keyboard-response","stimulus":"<em>Please wait for 7 seconds...</em>","time_elapsed":695174,"trial_index":149,"dateTime":"2021-11-10T16:28:19.424Z","isRelevant":false},{"internal_node_id":"0.0-0.0-54.0-0.1","rt":null,"response":null,"trial_type":"html-keyboard-response","stimulus":"<em>Please wait for 6 seconds...</em>","time_elapsed":696177,"trial_index":150,"dateTime":"2021-11-10T16:28:20.428Z","isRelevant":false},{"internal_node_id":"0.0-0.0-54.0-0.2","rt":null,"response":null,"trial_type":"html-keyboard-response","stimulus":"<em>Please wait for 5 seconds...</em>","time_elapsed":697180,"trial_index":151,"dateTime":"2021-11-10T16:28:21.431Z","isRelevant":false},{"internal_node_id":"0.0-0.0-54.0-0.3","rt":null,"response":null,"trial_type":"html-keyboard-response","stimulus":"<em>Please wait for 4 seconds...</em>","time_elapsed":698182,"trial_index":152,"dateTime":"2021-11-10T16:28:22.433Z","isRelevant":false},{"internal_node_id":"0.0-0.0-54.0-0.4","rt":null,"response":null,"trial_type":"html-keyboard-response","stimulus":"<em>Please wait for 3 seconds...</em>","time_elapsed":699187,"trial_index":153,"dateTime":"2021-11-10T16:28:23.437Z","isRelevant":false},{"internal_node_id":"0.0-0.0-54.0-0.5","rt":null,"response":null,"trial_type":"html-keyboard-response","stimulus":"<em>Please wait for 2 seconds...</em>","time_elapsed":700191,"trial_index":154,"dateTime":"2021-11-10T16:28:24.442Z","isRelevant":false},{"internal_node_id":"0.0-0.0-54.0-0.6","rt":null,"response":null,"trial_type":"html-keyboard-response","stimulus":"<em>Please wait for 1 seconds...</em>","time_elapsed":701194,"trial_index":155,"dateTime":"2021-11-10T16:28:25.445Z","isRelevant":false},{"internal_node_id":"0.0-0.0-55.0","rt":null,"response":null,"trial_type":"html-keyboard-response","stimulus":"<div class=\"n-back-cue-title\">One-Back</div> <table class=\"n-back-cue-table\"> <td>5</td> <td class=\"n-back-cue-highlight\">7</td> <td class=\"n-back-cue-target n-back-cue-highlight\">7</td> </table> ","time_elapsed":703196,"trial_index":156,"dateTime":"2021-11-10T16:28:27.446Z","isRelevant":false},{"sequence":["3","6","6","3","3","8","6","5","5","6","6","2","7","2","4"],"internal_node_id":"0.0-0.0-56.0","trial_type":"n-back","time_elapsed":730211,"missedIndices":[],"trial_index":157,"responses":[{"time_from_start":4166,"index":2,"time_from_focus":562,"correct":true},{"time_from_start":7854,"index":4,"time_from_focus":647,"correct":true},{"time_from_start":14997,"index":8,"time_from_focus":589,"correct":true},{"time_from_start":18437,"index":10,"time_from_focus":427,"correct":true}],"n":1,"dateTime":"2021-11-10T16:28:54.461Z","isRelevant":true},{"internal_node_id":"0.0-0.0-57.0-0.0","rt":null,"response":null,"trial_type":"html-keyboard-response","stimulus":"<em>Please wait for 7 seconds...</em>","time_elapsed":731215,"trial_index":158,"dateTime":"2021-11-10T16:28:55.465Z","isRelevant":false},{"internal_node_id":"0.0-0.0-57.0-0.1","rt":null,"response":null,"trial_type":"html-keyboard-response","stimulus":"<em>Please wait for 6 seconds...</em>","time_elapsed":732220,"trial_index":159,"dateTime":"2021-11-10T16:28:56.471Z","isRelevant":false},{"internal_node_id":"0.0-0.0-57.0-0.2","rt":null,"response":null,"trial_type":"html-keyboard-response","stimulus":"<em>Please wait for 5 seconds...</em>","time_elapsed":733224,"trial_index":160,"dateTime":"2021-11-10T16:28:57.475Z","isRelevant":false},{"internal_node_id":"0.0-0.0-57.0-0.3","rt":null,"response":null,"trial_type":"html-keyboard-response","stimulus":"<em>Please wait for 4 seconds...</em>","time_elapsed":734229,"trial_index":161,"dateTime":"2021-11-10T16:28:58.479Z","isRelevant":false},{"internal_node_id":"0.0-0.0-57.0-0.4","rt":null,"response":null,"trial_type":"html-keyboard-response","stimulus":"<em>Please wait for 3 seconds...</em>","time_elapsed":735234,"trial_index":162,"dateTime":"2021-11-10T16:28:59.484Z","isRelevant":false},{"internal_node_id":"0.0-0.0-57.0-0.5","rt":null,"response":null,"trial_type":"html-keyboard-response","stimulus":"<em>Please wait for 2 seconds...</em>","time_elapsed":736238,"trial_index":163,"dateTime":"2021-11-10T16:29:00.488Z","isRelevant":false},{"internal_node_id":"0.0-0.0-57.0-0.6","rt":null,"response":null,"trial_type":"html-keyboard-response","stimulus":"<em>Please wait for 1 seconds...</em>","time_elapsed":737239,"trial_index":164,"dateTime":"2021-11-10T16:29:01.489Z","isRelevant":false},{"internal_node_id":"0.0-0.0-58.0","rt":null,"response":null,"trial_type":"html-keyboard-response","stimulus":"<div class=\"n-back-cue-title\">Two-Back</div> <table class=\"n-back-cue-table\"> <td class=\"n-back-cue-highlight\">6</td> <td>3</td> <td class=\"n-back-cue-target n-back-cue-highlight\">6</td> </table> ","time_elapsed":739241,"trial_index":165,"dateTime":"2021-11-10T16:29:03.491Z","isRelevant":false},{"sequence":["7","7","5","7","3","4","5","4","8","3","8","8","5","9","5"],"internal_node_id":"0.0-0.0-59.0","trial_type":"n-back","time_elapsed":766265,"missedIndices":[],"trial_index":166,"responses":[{"time_from_start":6011,"index":3,"time_from_focus":608,"correct":true},{"time_from_start":13291,"index":7,"time_from_focus":681,"correct":true},{"time_from_start":18707,"index":10,"time_from_focus":694,"correct":true},{"time_from_start":25707,"index":14,"time_from_focus":485,"correct":true}],"n":2,"dateTime":"2021-11-10T16:29:30.515Z","isRelevant":true},{"internal_node_id":"0.0-0.0-60.0-0.0","rt":null,"response":null,"trial_type":"html-keyboard-response","stimulus":"<em>Please wait for 7 seconds...</em>","time_elapsed":767266,"trial_index":167,"dateTime":"2021-11-10T16:29:31.516Z","isRelevant":false},{"internal_node_id":"0.0-0.0-60.0-0.1","rt":null,"response":null,"trial_type":"html-keyboard-response","stimulus":"<em>Please wait for 6 seconds...</em>","time_elapsed":768270,"trial_index":168,"dateTime":"2021-11-10T16:29:32.520