[{"taskStarted":true,"userId":"0d3c05d0-cd11-47ab-b5fb-d4c828114f29","dateTime":"2021-11-20T17:50:19.142Z","isRelevant":false},{"trial_index":0,"internal_node_id":"0.0-0.0-0.0-0.0","success":true,"trial_type":"fullscreen","time_elapsed":1985,"userId":"0d3c05d0-cd11-47ab-b5fb-d4c828114f29","dateTime":"2021-11-20T17:50:21.127Z","isRelevant":false},{"internal_node_id":"0.0-0.0-1.0","rt":60140,"question_order":[0,1,2,3,4,5,6,7,8,9,10,11,12,13,14,15,16,17,18,19],"response":{"ashamed":1,"upset":2,"strong":2,"proud":1,"excited":3,"hostile":1,"attentive":3,"active":1,"inspired":1,"distressed":2,"enthusiastic":1,"guilty":2,"irritable":1,"alert":1,"nervous":4,"determined":2,"jittery":2,"afraid":0,"interested":2,"scared":1},"trial_type":"survey-likert","time_elapsed":62130,"trial_index":1,"userId":"0d3c05d0-cd11-47ab-b5fb-d4c828114f29","dateTime":"2021-11-20T17:51:21.272Z","isRelevant":true},{"ua":"Mozilla/5.0 (Windows NT 10.0; Win64; x64; rv:94.0) Gecko/20100101 Firefox/94.0","userId":"0d3c05d0-cd11-47ab-b5fb-d4c828114f29","dateTime":"2021-11-20T17:51:21.278Z","isRelevant":false},{"taskStarted":true,"userId":"0d3c05d0-cd11-47ab-b5fb-d4c828114f29","dateTime":"2021-11-20T17:52:26.185Z","isRelevant":false},{"taskStarted":true,"userId":"0d3c05d0-cd11-47ab-b5fb-d4c828114f29","dateTime":"2021-11-20T17:54:00.553Z","isRelevant":false},{"trial_index":0,"internal_node_id":"0.0-0.0-0.0-0.0","success":true,"trial_type":"fullscreen","time_elapsed":629,"userId":"0d3c05d0-cd11-47ab-b5fb-d4c828114f29","dateTime":"2021-11-20T17:54:01.182Z","isRelevant":false},{"taskStarted":true,"userId":"524d2272-d17f-42aa-b335-772a7ac10972","dateTime":"2021-11-10T16:11:35.502Z","isRelevant":false},{"internal_node_id":"0.0-0.0-1.0","rt":63520,"question_order":[0,1,2,3,4,5,6,7,8,9,10,11,12,13,14,15,16,17,18,19],"response":{"ashamed":0,"upset":1,"strong":3,"proud":3,"excited":2,"hostile":0,"attentive":2,"active":2,"inspired":2,"distressed":2,"enthusiastic":2,"guilty":0,"irritable":1,"alert":2,"nervous":1,"determined":3,"jittery":0,"afraid":1,"interested":2,"scared":0},"trial_type":"survey-likert","time_elapsed":63533,"trial_index":0,"userId":"524d2272-d17f-42aa-b335-772a7ac10972","dateTime":"2021-11-10T16:12:39.035Z","isRelevant":true},{"ua":"Mozilla/5.0 (Macintosh; Intel Mac OS X 10.15; rv:94.0) Gecko/20100101 Firefox/94.0","userId":"524d2272-d17f-42aa-b335-772a7ac10972","dateTime":"2021-11-10T16:12:39.040Z","isRelevant":false},{"taskStarted":true,"userId":"524d2272-d17f-42aa-b335-772a7ac10972","dateTime":"2021-11-11T15:59:16.437Z","isRelevant":false},{"internal_node_id":"0.0-0.0-1.0","rt":52940,"question_order":[0,1,2,3,4,5,6,7,8,9,10,11,12,13,14,15,16,17,18,19],"response":{"ashamed":0,"upset":0,"strong":3,"proud":3,"excited":3,"hostile":0,"attentive":3,"active":3,"inspired":2,"distressed":0,"enthusiastic":3,"guilty":0,"irritable":0,"alert":3,"nervous":1,"determined":3,"jittery":0,"afraid":1,"interested":3,"scared":0},"trial_type":"survey-likert","time_elapsed":52951,"trial_index":0,"userId":"524d2272-d17f-42aa-b335-772a7ac10972","dateTime":"2021-11-11T16:00:09.388Z","isRelevant":true},{"ua":"Mozilla/5.0 (Macintosh; Intel Mac OS X 10.15; rv:94.0) Gecko/20100101 Firefox/94.0","userId":"524d2272-d17f-42aa-b335-772a7ac10972","dateTime":"2021-11-11T16:00:09.391Z","isRelevant":false},{"taskStarted":true,"userId":"524d2272-d17f-42aa-b335-772a7ac10972","dateTime":"2021-11-13T00:00:30.070Z","isRelevant":false},{"trial_index":0,"internal_node_id":"0.0-0.0-0.0-0.0","success":true,"trial_type":"fullscreen","time_elapsed":2343,"userId":"524d2272-d17f-42aa-b335-772a7ac10972","dateTime":"2021-11-13T00:00:32.411Z","isRelevant":false},{"internal_node_id":"0.0-0.0-1.0","rt":54881,"question_order":[0,1,2,3,4,5,6,7,8,9,10,11,12,13,14,15,16,17,18,19],"response":{"ashamed":0,"upset":0,"strong":3,"proud":3,"excited":2,"hostile":0,"attentive":2,"active":2,"inspired":2,"distressed":1,"enthusiastic":2,"guilty":0,"irritable":1,"alert":2,"nervous":0,"determined":2,"jittery":0,"afraid":0,"interested":2,"scared":0},"trial_type":"survey-likert","time_elapsed":57231,"trial_index":1,"userId":"524d2272-d17f-42aa-b335-772a7ac10972","dateTime":"2021-11-13T00:01:27.300Z","isRelevant":true},{"ua":"Mozilla/5.0 (Macintosh; Intel Mac OS X 10.15; rv:94.0) Gecko/20100101 Firefox/94.0","userId":"524d2272-d17f-42aa-b335-772a7ac10972","dateTime":"2021-11-13T00:01:27.304Z","isRelevant":false},{"taskStarted":true,"userId":"524d2272-d17f-42aa-b335-772a7ac10972","dateTime":"2021-11-13T22:18:50.475Z","isRelevant":false},{"trial_index":0,"internal_node_id":"0.0-0.0-0.0-0.0","success":true,"trial_type":"fullscreen","time_elapsed":135180,"userId":"524d2272-d17f-42aa-b335-772a7ac10972","dateTime":"2021-11-13T22:21:05.651Z","isRelevant":false},{"internal_node_id":"0.0-0.0-1.0","rt":46118,"question_order":[0,1,2,3,4,5,6,7,8,9,10,11,12,13,14,15,16,17,18,19],"response":{"ashamed":0,"upset":0,"strong":2,"proud":3,"excited":2,"hostile":0,"attentive":2,"active":1,"inspired":2,"distressed":0,"enthusiastic":2,"guilty":0,"irritable":0,"alert":1,"nervous":0,"determined":2,"jittery":0,"afraid":0,"interested":2,"scared":0},"trial_type":"survey-likert","time_elapsed":181309,"trial_index":1,"userId":"524d2272-d17f-42aa-b335-772a7ac10972","dateTime":"2021-11-13T22:21:51.780Z","isRelevant":true},{"ua":"Mozilla/5.0 (Macintosh; Intel Mac OS X 10.15; rv:94.0) Gecko/20100101 Firefox/94.0","userId":"524d2272-d17f-42aa-b335-772a7ac10972","dateTime":"2021-11-13T22:21:51.785Z","isRelevant":false},{"taskStarted":true,"userId":"524d2272-d17f-42aa-b335-772a7ac10972","dateTime":"2021-11-17T05:06:58.970Z","isRelevant":false},{"internal_node_id":"0.0-0.0-1.0","rt":54801,"question_order":[0,1,2,3,4,5,6,7,8,9,10,11,12,13,14,15,16,17,18,19],"response":{"ashamed":0,"upset":1,"strong":1,"proud":1,"excited":1,"hostile":0,"attentive":1,"active":1,"inspired":1,"distressed":1,"enthusiastic":1,"guilty":0,"irritable":2,"alert":2,"nervous":1,"determined":2,"jittery":0,"afraid":1,"interested":2,"scared":0},"trial_type":"survey-likert","time_elapsed":54808,"trial_index":0,"userId":"524d2272-d17f-42aa-b335-772a7ac10972","dateTime":"2021-11-17T05:07:53.778Z","isRelevant":true},{"ua":"Mozilla/5.0 (Macintosh; Intel Mac OS X 10.15; rv:94.0) Gecko/20100101 Firefox/94.0","userId":"524d2272-d17f-42aa-b335-772a7ac10972","dateTime":"2021-11-17T05:07:53.781Z","isRelevant":false},{"taskStarted":true,"userId":"118a2724-6420-41e6-af9f-42da893ea092","dateTime":"2021-11-07T01:26:20.102Z","isRelevant":false},{"internal_node_id":"0.0-0.0-1.0","rt":33833.10000000894,"question_order":[0,1,2,3,4,5,6,7,8,9,10,11,12,13,14,15,16,17,18,19],"response":{"ashamed":0,"upset":0,"strong":1,"proud":1,"excited":1,"hostile":0,"attentive":2,"active":2,"inspired":1,"distressed":0,"enthusiastic":2,"guilty":0,"irritable":1,"alert":3,"nervous":0,"determined":1,"jittery":0,"afraid":0,"interested":2,"scared":0},"trial_type":"survey-likert","time_elapsed":33839,"trial_index":0,"userId":"118a2724-6420-41e6-af9f-42da893ea092","dateTime":"2021-11-07T01:26:53.942Z","isRelevant":true},{"ua":"Mozilla/5.0 (Macintosh; Intel Mac OS X 10_15_7) AppleWebKit/537.36 (KHTML, like Gecko) Chrome/95.0.4638.54 Safari/537.36","userId":"118a2724-6420-41e6-af9f-42da893ea092","dateTime":"2021-11-07T01:26:53.944Z","isRelevant":false},{"taskStarted":true,"userId":"118a2724-6420-41e6-af9f-42da893ea092","dateTime":"2021-11-09T06:29:36.115Z","isRelevant":false},{"internal_node_id":"0.0-0.0-1.0","rt":30962.69999998808,"question_order":[0,1,2,3,4,5,6,7,8,9,10,11,12,13,14,15,16,17,18,19],"response":{"ashamed":0,"upset":0,"strong":1,"proud":2,"excited":1,"hostile":0,"attentive":1,"active":1,"inspired":1,"distressed":0,"enthusiastic":2,"guilty":0,"irritable":0,"alert":1,"nervous":0,"determined":2,"jittery":0,"afraid":0,"interested":1,"scared":0},"trial_type":"survey-likert","time_elapsed":30970,"trial_index":0,"userId":"118a2724-6420-41e6-af9f-42da893ea092","dateTime":"2021-11-09T06:30:07.085Z","isRelevant":true},{"ua":"Mozilla/5.0 (Macintosh; Intel Mac OS X 10_15_7) AppleWebKit/537.36 (KHTML, like Gecko) Chrome/95.0.4638.54 Safari/537.36","userId":"118a2724-6420-41e6-af9f-42da893ea092","dateTime":"2021-11-09T06:30:07.088Z","isRelevant":false},{"taskStarted":true,"userId":"118a2724-6420-41e6-af9f-42da893ea092","dateTime":"2021-11-09T17:46:58.692Z","isRelevant":false},{"internal_node_id":"0.0-0.0-1.0","rt":36259.59999999404,"question_order":[0,1,2,3,4,5,6,7,8,9,10,11,12,13,14,15,16,17,18,19],"response":{"ashamed":0,"upset":0,"strong":1,"proud":1,"excited":1,"hostile":0,"attentive":2,"active":1,"inspired":2,"distressed":0,"enthusiastic":2,"guilty":0,"irritable":0,"alert":1,"nervous":0,"determined":1,"jittery":0,"afraid":0,"interested":2,"scared":0},"trial_type":"survey-likert","time_elapsed":36269,"trial_index":0,"userId":"118a2724-6420-41e6-af9f-42da893ea092","dateTime":"2021-11-09T17:47:34.960Z","isRelevant":true},{"ua":"Mozilla/5.0 (Macintosh; Intel Mac OS X 10_15_7) AppleWebKit/537.36 (KHTML, like Gecko) Chrome/95.0.4638.54 Safari/537.36","userId":"118a2724-6420-41e6-af9f-42da893ea092","dateTime":"2021-11-09T17:47:34.963Z","isRelevant":false},{"taskStarted":true,"userId":"b07d920b-a11a-422a-a359-694608c3cd00","dateTime":"2021-11-16T18:14:40.042Z","isRelevant":false},{"internal_node_id":"0.0-0.0-1.0","rt":85908.89999997616,"question_order":[0,1,2,3,4,5,6,7,8,9,10,11,12,13,14,15,16,17,18,19],"response":{"ashamed":0,"upset":0,"strong":2,"proud":3,"excited":2,"hostile":0,"attentive":3,"active":2,"inspired":3,"distressed":1,"enthusiastic":2,"guilty":0,"irritable":0,"alert":1,"nervous":1,"determined":3,"jittery":1,"afraid":0,"interested":3,"scared":0},"trial_type":"survey-likert","time_elapsed":85907,"trial_index":0,"userId":"b07d920b-a11a-422a-a359-694608c3cd00","dateTime":"2021-11-16T18:16:05.949Z","isRelevant":true},{"ua":"Mozilla/5.0 (Macintosh; Intel Mac OS X 10_15_7) AppleWebKit/537.36 (KHTML, like Gecko) Chrome/95.0.4638.54 Safari/537.36","userId":"b07d920b-a11a-422a-a359-694608c3cd00","dateTime":"2021-11-16T18:16:05.953Z","isRelevant":false},{"taskStarted":true,"userId":"b07d920b-a11a-422a-a359-694608c3cd00","dateTime":"2021-11-17T23:07:51.972Z","isRelevant":false},{"internal_node_id":"0.0-0.0-1.0","rt":57485,"question_order":[0,1,2,3,4,5,6,7,8,9,10,11,12,13,14,15,16,17,18,19],"response":{"ashamed":0,"upset":0,"strong":1,"proud":2,"excited":1,"hostile":0,"attentive":2,"active":2,"inspired":1,"distressed":0,"enthusiastic":2,"guilty":0,"irritable":0,"alert":1,"nervous":1,"determined":2,"jittery":0,"afraid":0,"interested":2,"scared":0},"trial_type":"survey-likert","time_elapsed":57488,"trial_index":0,"userId":"b07d920b-a11a-422a-a359-694608c3cd00","dateTime":"2021-11-17T23:08:49.459Z","isRelevant":true},{"ua":"Mozilla/5.0 (Macintosh; Intel Mac OS X 10_15_7) AppleWebKit/537.36 (KHTML, like Gecko) Chrome/95.0.4638.54 Safari/537.36","userId":"b07d920b-a11a-422a-a359-694608c3cd00","dateTime":"2021-11-17T23:08:49.461Z","isRelevant":false},{"taskStarted":true,"userId":"b07d920b-a11a-422a-a359-694608c3cd00","dateTime":"2021-11-19T05:02:45.261Z","isRelevant":false},{"taskStarted":true,"userId":"b07d920b-a11a-422a-a359-694608c3cd00","dateTime":"2021-11-19T05:02:51.000Z","isRelevant":false},{"taskStarted":true,"userId":"b07d920b-a11a-422a-a359-694608c3cd00","dateTime":"2021-11-19T05:02:54.618Z","isRelevant":false},{"trial_index":0,"internal_node_id":"0.0-0.0-0.0-0.0","success":true,"trial_type":"fullscreen","time_elapsed":52818,"userId":"b07d920b-a11a-422a-a359-694608c3cd00","dateTime":"2021-11-19T05:03:47.436Z","isRelevant":false},{"internal_node_id":"0.0-0.0-1.0","rt":63586.699999928474,"question_order":[0,1,2,3,4,5,6,7,8,9,10,11,12,13,14,15,16,17,18,19],"response":{"ashamed":0,"upset":1,"strong":1,"proud":2,"excited":2,"hostile":0,"attentive":2,"active":2,"inspired":2,"distressed":1,"enthusiastic":2,"guilty":1,"irritable":1,"alert":1,"nervous":1,"determined":2,"jittery":0,"afraid":1,"interested":2,"scared":0},"trial_type":"survey-likert","time_elapsed":116410,"trial_index":1,"userId":"b07d920b-a11a-422a-a359-694608c3cd00","dateTime":"2021-11-19T05:04:51.027Z","isRelevant":true},{"ua":"Mozilla/5.0 (Macintosh; Intel Mac OS X 10_15_7) AppleWebKit/537.36 (KHTML, like Gecko) Chrome/95.0.4638.54 Safari/537.36","userId":"b07d920b-a11a-422a-a359-694608c3cd00","dateTime":"2021-11-19T05:04:51.030Z","isRelevant":false},{"taskStarted":true,"userId":"b07d920b-a11a-422a-a359-694608c3cd00","dateTime":"2021-11-19T19:47:06.456Z","isRelevant":false},{"trial_index":0,"internal_node_id":"0.0-0.0-0.0-0.0","success":true,"trial_type":"fullscreen","time_elapsed":13651,"userId":"b07d920b-a11a-422a-a359-694608c3cd00","dateTime":"2021-11-19T19:47:20.105Z","isRelevant":false},{"taskStarted":true,"userId":"b07d920b-a11a-422a-a359-694608c3cd00","dateTime":"2021-11-20T00:32:59.033Z","isRelevant":false},{"taskStarted":true,"userId":"b07d920b-a11a-422a-a359-694608c3cd00","dateTime":"2021-11-20T00:33:00.623Z","isRelevant":false},{"trial_index":0,"internal_node_id":"0.0-0.0-0.0-0.0","success":true,"trial_type":"fullscreen","time_elapsed":1488,"userId":"b07d920b-a11a-422a-a359-694608c3cd00","dateTime":"2021-11-20T00:33:02.111Z","isRelevant":false},{"internal_node_id":"0.0-0.0-1.0","rt":56850.10000002384,"question_order":[0,1,2,3,4,5,6,7,8,9,10,11,12,13,14,15,16,17,18,19],"response":{"ashamed":0,"upset":0,"strong":1,"proud":2,"excited":2,"hostile":0,"attentive":2,"active":2,"inspired":2,"distressed":1,"enthusiastic":2,"guilty":1,"irritable":0,"alert":2,"nervous":1,"determined":2,"jittery":0,"afraid":1,"interested":2,"scared":0},"trial_type":"survey-likert","time_elapsed":58342,"trial_index":1,"userId":"b07d920b-a11a-422a-a359-694608c3cd00","dateTime":"2021-11-20T00:33:58.964Z","isRelevant":true},{"ua":"Mozilla/5.0 (Macintosh; Intel Mac OS X 10_15_7) AppleWebKit/537.36 (KHTML, like Gecko) Chrome/95.0.4638.54 Safari/537.36","userId":"b07d920b-a11a-422a-a359-694608c3cd00","dateTime":"2021-11-20T00:33:58.969Z","isRelevant":false},{"taskStarted":true,"userId":"b07d920b-a11a-422a-a359-694608c3cd00","dateTime":"2021-11-20T22:33:04.062Z","isRelevant":false},{"trial_index":0,"internal_node_id":"0.0-0.0-0.0-0.0","success":true,"trial_type":"fullscreen","time_elapsed":4854,"userId":"b07d920b-a11a-422a-a359-694608c3cd00","dateTime":"2021-11-20T22:33:08.915Z","isRelevant":false},{"internal_node_id":"0.0-0.0-1.0","rt":46911.89999997616,"question_order":[0,1,2,3,4,5,6,7,8,9,10,11,12,13,14,15,16,17,18,19],"response":{"ashamed":0,"upset":0,"strong":2,"proud":2,"excited":1,"hostile":0,"attentive":2,"active":2,"inspired":2,"distressed":1,"enthusiastic":2,"guilty":0,"irritable":0,"alert":1,"nervous":1,"determined":1,"jittery":0,"afraid":1,"interested":2,"scared":0},"trial_type":"survey-likert","time_elapsed":51764,"trial_index":1,"userId":"b07d920b-a11a-422a-a359-694608c3cd00","dateTime":"2021-11-20T22:33:55.825Z","isRelevant":true},{"ua":"Mozilla/5.0 (Macintosh; Intel Mac OS X 10_15_7) AppleWebKit/537.36 (KHTML, like Gecko) Chrome/95.0.4638.54 Safari/537.36","userId":"b07d920b-a11a-422a-a359-694608c3cd00","dateTime":"2021-11-20T22:33:55.832Z","isRelevant":false},{"taskStarted":true,"userId":"b07d920b-a11a-422a-a359-694608c3cd00","dateTime":"2021-11-22T21:37:10.726Z","isRelevant":false},{"internal_node_id":"0.0-0.0-1.0","rt":58820.800000071526,"question_order":[0,1,2,3,4,5,6,7,8,9,10,11,12,13,14,15,16,17,18,19],"response":{"ashamed":0,"upset":0,"strong":1,"proud":2,"excited":1,"hostile":0,"attentive":2,"active":2,"inspired":2,"distressed":1,"enthusiastic":2,"guilty":0,"irritable":0,"alert":1,"nervous":0,"determined":2,"jittery":0,"afraid":1,"interested":2,"scared":1},"trial_type":"survey-likert","time_elapsed":58823,"trial_index":0,"userId":"b07d920b-a11a-422a-a359-694608c3cd00","dateTime":"2021-11-22T21:38:09.549Z","isRelevant":true},{"ua":"Mozilla/5.0 (Macintosh; Intel Mac OS X 10_15_7) AppleWebKit/537.36 (KHTML, like Gecko) Chrome/95.0.4638.54 Safari/537.36","userId":"b07d920b-a11a-422a-a359-694608c3cd00","dateTime":"2021-11-22T21:38:09.551Z","isRelevant":false},{"taskStarted":true,"userId":"22463d21-44f5-47c7-9ae1-547c9124d869","dateTime":"2021-11-09T18:59:04.543Z","isRelevant":false},{"internal_node_id":"0.0-0.0-1.0","rt":143489.69999998808,"question_order":[0,1,2,3,4,5,6,7,8,9,10,11,12,13,14,15,16,17,18,19],"response":{"ashamed":1,"upset":2,"strong":3,"proud":3,"excited":2,"hostile":2,"attentive":3,"active":3,"inspired":3,"distressed":2,"enthusiastic":4,"guilty":2,"irritable":2,"alert":3,"nervous":3,"determined":3,"jittery":2,"afraid":3,"interested":3,"scared":3},"trial_type":"survey-likert","time_elapsed":143500,"trial_index":0,"userId":"22463d21-44f5-47c7-9ae1-547c9124d869","dateTime":"2021-11-09T19:01:28.043Z","isRelevant":true},{"ua":"Mozilla/5.0 (Macintosh; Intel Mac OS X 10_15_7) AppleWebKit/537.36 (KHTML, like Gecko) Chrome/94.0.4606.71 Safari/537.36","userId":"22463d21-44f5-47c7-9ae1-547c9124d869","dateTime":"2021-11-09T19:01:28.045Z","isRelevant":false},{"taskStarted":true,"userId":"1e7afe8d-bc84-463f-bd6e-c9bd987464be","dateTime":"2021-11-17T15:46:24.135Z","isRelevant":false},{"internal_node_id":"0.0-0.0-1.0","rt":194171,"question_order":[0,1,2,3,4,5,6,7,8,9,10,11,12,13,14,15,16,17,18,19],"response":{"ashamed":0,"upset":1,"strong":2,"proud":1,"excited":2,"hostile":0,"attentive":2,"active":2,"inspired":1,"distressed":0,"enthusiastic":1,"guilty":0,"irritable":0,"alert":1,"nervous":1,"determined":1,"jittery":0,"afraid":0,"interested":3,"scared":0},"trial_type":"survey-likert","time_elapsed":194176,"trial_index":0,"userId":"1e7afe8d-bc84-463f-bd6e-c9bd987464be","dateTime":"2021-11-17T15:49:38.311Z","isRelevant":true},{"ua":"Mozilla/5.0 (Windows NT 10.0; Win64; x64; rv:91.0) Gecko/20100101 Firefox/91.0","userId":"1e7afe8d-bc84-463f-bd6e-c9bd987464be","dateTime":"2021-11-17T15:49:38.314Z","isRelevant":false},{"taskStarted":true,"userId":"1e7afe8d-bc84-463f-bd6e-c9bd987464be","dateTime":"2021-11-17T20:06:45.843Z","isRelevant":false},{"internal_node_id":"0.0-0.0-1.0","rt":342806,"question_order":[0,1,2,3,4,5,6,7,8,9,10,11,12,13,14,15,16,17,18,19],"response":{"ashamed":0,"upset":0,"strong":1,"proud":1,"excited":1,"hostile":0,"attentive":1,"active":1,"inspired":1,"distressed":0,"enthusiastic":1,"guilty":0,"irritable":0,"alert":0,"nervous":1,"determined":1,"jittery":0,"afraid":0,"interested":2,"scared":0},"trial_type":"survey-likert","time_elapsed":342811,"trial_index":0,"userId":"1e7afe8d-bc84-463f-bd6e-c9bd987464be","dateTime":"2021-11-17T20:12:28.654Z","isRelevant":true},{"ua":"Mozilla/5.0 (Windows NT 10.0; Win64; x64; rv:91.0) Gecko/20100101 Firefox/91.0","userId":"1e7afe8d-bc84-463f-bd6e-c9bd987464be","dateTime":"2021-11-17T20:12:28.658Z","isRelevant":false},{"taskStarted":true,"userId":"1e7afe8d-bc84-463f-bd6e-c9bd987464be","dateTime":"2021-11-18T12:13:21.057Z","isRelevant":false},{"trial_index":0,"internal_node_id":"0.0-0.0-0.0-0.0","success":true,"trial_type":"fullscreen","time_elapsed":263865,"userId":"1e7afe8d-bc84-463f-bd6e-c9bd987464be","dateTime":"2021-11-18T12:17:44.918Z","isRelevant":false},{"internal_node_id":"0.0-0.0-1.0","rt":53902,"question_order":[0,1,2,3,4,5,6,7,8,9,10,11,12,13,14,15,16,17,18,19],"response":{"ashamed":0,"upset":0,"strong":1,"proud":0,"excited":1,"hostile":0,"attentive":1,"active":1,"inspired":1,"distressed":0,"enthusiastic":1,"guilty":0,"irritable":0,"alert":0,"nervous":0,"determined":0,"jittery":1,"afraid":0,"interested":1,"scared":0},"trial_type":"survey-likert","time_elapsed":317777,"trial_index":1,"userId":"1e7afe8d-bc84-463f-bd6e-c9bd987464be","dateTime":"2021-11-18T12:18:38.830Z","isRelevant":true},{"ua":"Mozilla/5.0 (Windows NT 10.0; Win64; x64; rv:91.0) Gecko/20100101 Firefox/91.0","userId":"1e7afe8d-bc84-463f-bd6e-c9bd987464be","dateTime":"2021-11-18T12:18:38.834Z","isRelevant":false},{"taskStarted":true,"userId":"1e7afe8d-bc84-463f-bd6e-c9bd987464be","dateTime":"2021-11-18T15:52:18.569Z","isRelevant":false},{"trial_index":0,"internal_node_id":"0.0-0.0-0.0-0.0","success":true,"trial_type":"fullscreen","time_elapsed":2094,"userId":"1e7afe8d-bc84-463f-bd6e-c9bd987464be","dateTime":"2021-11-18T15:52:20.661Z","isRelevant":false},{"internal_node_id":"0.0-0.0-1.0","rt":37098,"question_order":[0,1,2,3,4,5,6,7,8,9,10,11,12,13,14,15,16,17,18,19],"response":{"ashamed":0,"upset":0,"strong":1,"proud":0,"excited":0,"hostile":0,"attentive":1,"active":0,"inspired":1,"distressed":0,"enthusiastic":1,"guilty":0,"irritable":0,"alert":0,"nervous":1,"determined":1,"jittery":0,"afraid":0,"interested":1,"scared":0},"trial_type":"survey-likert","time_elapsed":39198,"trial_index":1,"userId":"1e7afe8d-bc84-463f-bd6e-c9bd987464be","dateTime":"2021-11-18T15:52:57.764Z","isRelevant":true},{"ua":"Mozilla/5.0 (Windows NT 10.0; Win64; x64; rv:91.0) Gecko/20100101 Firefox/91.0","userId":"1e7afe8d-bc84-463f-bd6e-c9bd987464be","dateTime":"2021-11-18T15:52:57.771Z","isRelevant":false},{"taskStarted":true,"userId":"1e7afe8d-bc84-463f-bd6e-c9bd987464be","dateTime":"2021-11-19T20:02:59.555Z","isRelevant":false},{"internal_node_id":"0.0-0.0-1.0","rt":32691,"question_order":[0,1,2,3,4,5,6,7,8,9,10,11,12,13,14,15,16,17,18,19],"response":{"ashamed":0,"upset":0,"strong":0,"proud":0,"excited":0,"hostile":0,"attentive":0,"active":0,"inspired":0,"distressed":0,"enthusiastic":0,"guilty":0,"irritable":0,"alert":0,"nervous":0,"determined":0,"jittery":0,"afraid":0,"interested":0,"scared":0},"trial_type":"survey-likert","time_elapsed":32697,"trial_index":0,"userId":"1e7afe8d-bc84-463f-bd6e-c9bd987464be","dateTime":"2021-11-19T20:03:32.252Z","isRelevant":true},{"ua":"Mozilla/5.0 (Windows NT 10.0; Win64; x64; rv:91.0) Gecko/20100101 Firefox/91.0","userId":"1e7afe8d-bc84-463f-bd6e-c9bd987464be","dateTime":"2021-11-19T20:03:32.259Z","isRelevant":false},{"taskStarted":true,"userId":"165fd106-8a5c-4705-8441-3beaa87dbda4","dateTime":"2021-11-15T18:01:25.005Z","isRelevant":false},{"internal_node_id":"0.0-0.0-1.0","rt":95355,"question_order":[0,1,2,3,4,5,6,7,8,9,10,11,12,13,14,15,16,17,18,19],"response":{"ashamed":0,"upset":0,"strong":2,"proud":2,"excited":1,"hostile":0,"attentive":2,"active":3,"inspired":0,"distressed":0,"enthusiastic":1,"guilty":0,"irritable":0,"alert":2,"nervous":0,"determined":2,"jittery":1,"afraid":0,"interested":2,"scared":0},"trial_type":"survey-likert","time_elapsed":95422,"trial_index":0,"userId":"165fd106-8a5c-4705-8441-3beaa87dbda4","dateTime":"2021-11-15T18:03:00.427Z","isRelevant":true},{"ua":"Mozilla/5.0 (Macintosh; Intel Mac OS X 10_15_7) AppleWebKit/605.1.15 (KHTML, like Gecko) Version/15.0 Safari/605.1.15","userId":"165fd106-8a5c-4705-8441-3beaa87dbda4","dateTime":"2021-11-15T18:03:00.430Z","isRelevant":false},{"taskStarted":true,"userId":"165fd106-8a5c-4705-8441-3beaa87dbda4","dateTime":"2021-11-16T22:51:52.778Z","isRelevant":false},{"internal_node_id":"0.0-0.0-1.0","rt":54009,"question_order":[0,1,2,3,4,5,6,7,8,9,10,11,12,13,14,15,16,17,18,19],"response":{"ashamed":0,"upset":0,"strong":0,"proud":3,"excited":2,"hostile":0,"attentive":2,"active":2,"inspired":2,"distressed":0,"enthusiastic":2,"guilty":0,"irritable":0,"alert":2,"nervous":1,"determined":2,"jittery":0,"afraid":0,"interested":2,"scared":0},"trial_type":"survey-likert","time_elapsed":54015,"trial_index":0,"userId":"165fd106-8a5c-4705-8441-3beaa87dbda4","dateTime":"2021-11-16T22:52:46.793Z","isRelevant":true},{"ua":"Mozilla/5.0 (Macintosh; Intel Mac OS X 10_15_7) AppleWebKit/605.1.15 (KHTML, like Gecko) Version/15.0 Safari/605.1.15","userId":"165fd106-8a5c-4705-8441-3beaa87dbda4","dateTime":"2021-11-16T22:52:46.796Z","isRelevant":false},{"taskStarted":true,"userId":"165fd106-8a5c-4705-8441-3beaa87dbda4","dateTime":"2021-11-17T16:58:23.307Z","isRelevant":false},{"trial_index":0,"internal_node_id":"0.0-0.0-0.0-0.0","success":true,"trial_type":"fullscreen","time_elapsed":4097,"userId":"165fd106-8a5c-4705-8441-3beaa87dbda4","dateTime":"2021-11-17T16:58:27.400Z","isRelevant":false},{"internal_node_id":"0.0-0.0-1.0","rt":62772,"question_order":[0,1,2,3,4,5,6,7,8,9,10,11,12,13,14,15,16,17,18,19],"response":{"ashamed":0,"upset":1,"strong":2,"proud":2,"excited":2,"hostile":1,"attentive":2,"active":2,"inspired":1,"distressed":3,"enthusiastic":2,"guilty":1,"irritable":1,"alert":2,"nervous":3,"determined":4,"jittery":2,"afraid":1,"interested":2,"scared":0},"trial_type":"survey-likert","time_elapsed":66877,"trial_index":1,"userId":"165fd106-8a5c-4705-8441-3beaa87dbda4","dateTime":"2021-11-17T16:59:30.180Z","isRelevant":true},{"ua":"Mozilla/5.0 (Macintosh; Intel Mac OS X 10_15_7) AppleWebKit/605.1.15 (KHTML, like Gecko) Version/15.0 Safari/605.1.15","userId":"165fd106-8a5c-4705-8441-3beaa87dbda4","dateTime":"2021-11-17T16:59:30.184Z","isRelevant":false},{"taskStarted":true,"userId":"165fd106-8a5c-4705-8441-3beaa87dbda4","dateTime":"2021-11-18T00:32:27.408Z","isRelevant":false},{"trial_index":0,"internal_node_id":"0.0-0.0-0.0-0.0","success":true,"trial_type":"fullscreen","time_elapsed":9052,"userId":"165fd106-8a5c-4705-8441-3beaa87dbda4","dateTime":"2021-11-18T00:32:36.456Z","isRelevant":false},{"internal_node_id":"0.0-0.0-1.0","rt":66151.00000000001,"question_order":[0,1,2,3,4,5,6,7,8,9,10,11,12,13,14,15,16,17,18,19],"response":{"ashamed":0,"upset":2,"strong":1,"proud":1,"excited":0,"hostile":0,"attentive":0,"active":1,"inspired":0,"distressed":2,"enthusiastic":1,"guilty":1,"irritable":1,"alert":3,"nervous":3,"determined":2,"jittery":2,"afraid":2,"interested":1,"scared":2},"trial_type":"survey-likert","time_elapsed":75211,"trial_index":1,"userId":"165fd106-8a5c-4705-8441-3beaa87dbda4","dateTime":"2021-11-18T00:33:42.615Z","isRelevant":true},{"ua":"Mozilla/5.0 (Macintosh; Intel Mac OS X 10_15_7) AppleWebKit/605.1.15 (KHTML, like Gecko) Version/15.0 Safari/605.1.15","userId":"165fd106-8a5c-4705-8441-3beaa87dbda4","dateTime":"2021-11-18T00:33:42.619Z","isRelevant":false},{"taskStarted":true,"userId":"165fd106-8a5c-4705-8441-3beaa87dbda4","dateTime":"2021-11-19T02:03:39.609Z","isRelevant":false},{"internal_node_id":"0.0-0.0-1.0","rt":57844,"question_order":[0,1,2,3,4,5,6,7,8,9,10,11,12,13,14,15,16,17,18,19],"response":{"ashamed":0,"upset":0,"strong":2,"proud":1,"excited":2,"hostile":0,"attentive":2,"active":2,"inspired":1,"distressed":1,"enthusiastic":1,"guilty":0,"irritable":0,"alert":2,"nervous":1,"determined":2,"jittery":2,"afraid":0,"interested":2,"scared":1},"trial_type":"survey-likert","time_elapsed":57858,"trial_index":0,"userId":"165fd106-8a5c-4705-8441-3beaa87dbda4","dateTime":"2021-11-19T02:04:37.467Z","isRelevant":true},{"ua":"Mozilla/5.0 (Macintosh; Intel Mac OS X 10_15_7) AppleWebKit/605.1.15 (KHTML, like Gecko) Version/15.0 Safari/605.1.15","userId":"165fd106-8a5c-4705-8441-3beaa87dbda4","dateTime":"2021-11-19T02:04:37.471Z","isRelevant":false},{"taskStarted":true,"userId":"0e09ed0f-3833-4304-9c23-ab6f5962e14c","dateTime":"2021-11-04T18:41:00.471Z","isRelevant":false},{"internal_node_id":"0.0-0.0-1.0","question_order":[0,1,2,3,4,5,6,7,8,9,10,11,12,13,14,15,16,17,18,19],"response":{"active":0,"afraid":0,"alert":3,"ashamed":0,"attentive":1,"determined":1,"distressed":0,"enthusiastic":1,"excited":1,"guilty":0,"hostile":0,"inspired":1,"interested":1,"irritable":1,"jittery":1,"nervous":2,"proud":1,"scared":0,"strong":2,"upset":0},"rt":46198.59999999986,"time_elapsed":46201,"trial_index":0,"trial_type":"survey-likert","userId":"0e09ed0f-3833-4304-9c23-ab6f5962e14c","dateTime":"2021-11-04T18:41:46.672Z","isRelevant":true},{"ua":"Mozilla/5.0 (Windows NT 10.0; Win64; x64) AppleWebKit/537.36 (KHTML, like Gecko) Chrome/95.0.4638.69 Safari/537.36","userId":"0e09ed0f-3833-4304-9c23-ab6f5962e14c","dateTime":"2021-11-04T18:41:46.673Z","isRelevant":false},{"taskStarted":true,"userId":"a39c0907-29e6-4c85-9188-b21b04ca17a6","dateTime":"2021-11-03T22:03:22.664Z","isRelevant":false},{"internal_node_id":"0.0-0.0-1.0","question_order":[0,1,2,3,4,5,6,7,8,9,10,11,12,13,14,15,16,17,18,19],"response":{"active":2,"afraid":0,"alert":2,"ashamed":0,"attentive":4,"determined":3,"distressed":0,"enthusiastic":2,"excited":3,"guilty":0,"hostile":0,"inspired":0,"interested":4,"irritable":0,"jittery":0,"nervous":1,"proud":0,"scared":0,"strong":0,"upset":0},"rt":85158.69999980927,"time_elapsed":85167,"trial_index":0,"trial_type":"survey-likert","userId":"a39c0907-29e6-4c85-9188-b21b04ca17a6","dateTime":"2021-11-03T22:04:47.832Z","isRelevant":true},{"ua":"Mozilla/5.0 (Macintosh; Intel Mac OS X 10_15_7) AppleWebKit/537.36 (KHTML, like Gecko) Chrome/95.0.4638.54 Safari/537.36","userId":"a39c0907-29e6-4c85-9188-b21b04ca17a6","dateTime":"2021-11-03T22:04:47.835Z","isRelevant":false},{"taskStarted":true,"userId":"a39c0907-29e6-4c85-9188-b21b04ca17a6","dateTime":"2021-11-04T16:35:39.738Z","isRelevant":false},{"internal_node_id":"0.0-0.0-1.0","question_order":[0,1,2,3,4,5,6,7,8,9,10,11,12,13,14,15,16,17,18,19],"response":{"active":2,"afraid":0,"alert":0,"ashamed":0,"attentive":2,"determined":2,"distressed":0,"enthusiastic":2,"excited":1,"guilty":0,"hostile":0,"inspired":2,"interested":2,"irritable":0,"jittery":0,"nervous":0,"proud":0,"scared":0,"strong":2,"upset":0},"rt":148898.80000019073,"time_elapsed":148911,"trial_index":0,"trial_type":"survey-likert","userId":"a39c0907-29e6-4c85-9188-b21b04ca17a6","dateTime":"2021-11-04T16:38:08.648Z","isRelevant":true},{"ua":"Mozilla/5.0 (Macintosh; Intel Mac OS X 10_15_7) AppleWebKit/537.36 (KHTML, like Gecko) Chrome/95.0.4638.54 Safari/537.36","userId":"a39c0907-29e6-4c85-9188-b21b04ca17a6","dateTime":"2021-11-04T16:38:08.651Z","isRelevant":false},{"taskStarted":true,"userId":"a39c0907-29e6-4c85-9188-b21b04ca17a6","dateTime":"2021-11-05T16:17:30.705Z","isRelevant":false},{"internal_node_id":"0.0-0.0-0.0-0.0","success":true,"time_elapsed":1475,"trial_index":0,"trial_type":"fullscreen","userId":"a39c0907-29e6-4c85-9188-b21b04ca17a6","dateTime":"2021-11-05T16:17:32.177Z","isRelevant":false},{"internal_node_id":"0.0-0.0-1.0","question_order":[0,1,2,3,4,5,6,7,8,9,10,11,12,13,14,15,16,17,18,19],"response":{"active":0,"afraid":0,"alert":0,"ashamed":0,"attentive":2,"determined":2,"distressed":0,"enthusiastic":2,"excited":2,"guilty":0,"hostile":0,"inspired":2,"interested":2,"irritable":0,"jittery":0,"nervous":0,"proud":0,"scared":0,"strong":0,"upset":0},"rt":110416.2999997139,"time_elapsed":111900,"trial_index":1,"trial_type":"survey-likert","userId":"a39c0907-29e6-4c85-9188-b21b04ca17a6","dateTime":"2021-11-05T16:19:22.604Z","isRelevant":true},{"ua":"Mozilla/5.0 (Macintosh; Intel Mac OS X 10_15_7) AppleWebKit/537.36 (KHTML, like Gecko) Chrome/95.0.4638.54 Safari/537.36","userId":"a39c0907-29e6-4c85-9188-b21b04ca17a6","dateTime":"2021-11-05T16:19:22.616Z","isRelevant":false},{"taskStarted":true,"userId":"a39c0907-29e6-4c85-9188-b21b04ca17a6","dateTime":"2021-11-07T22:27:45.195Z","isRelevant":false},{"trial_index":0,"internal_node_id":"0.0-0.0-0.0-0.0","success":true,"trial_type":"fullscreen","time_elapsed":842,"userId":"a39c0907-29e6-4c85-9188-b21b04ca17a6","dateTime":"2021-11-07T22:27:45.341Z","isRelevant":false},{"internal_node_id":"0.0-0.0-1.0","rt":170415,"question_order":[0,1,2,3,4,5,6,7,8,9,10,11,12,13,14,15,16,17,18,19],"response":{"ashamed":0,"upset":0,"strong":0,"proud":0,"excited":2,"hostile":0,"attentive":2,"active":0,"inspired":2,"distressed":0,"enthusiastic":2,"guilty":0,"irritable":0,"alert":0,"nervous":0,"determined":2,"jittery":0,"afraid":0,"interested":2,"scared":0},"trial_type":"survey-likert","time_elapsed":171281,"trial_index":1,"userId":"a39c0907-29e6-4c85-9188-b21b04ca17a6","dateTime":"2021-11-07T22:30:35.781Z","isRelevant":true},{"ua":"Mozilla/5.0 (Macintosh; Intel Mac OS X 10_15_7) AppleWebKit/537.36 (KHTML, like Gecko) Chrome/95.0.4638.69 Safari/537.36","userId":"a39c0907-29e6-4c85-9188-b21b04ca17a6","dateTime":"2021-11-07T22:30:35.786Z","isRelevant":false},{"taskStarted":true,"userId":"a39c0907-29e6-4c85-9188-b21b04ca17a6","dateTime":"2021-11-09T18:19:44.060Z","isRelevant":false},{"internal_node_id":"0.0-0.0-1.0","rt":40972.5,"question_order":[0,1,2,3,4,5,6,7,8,9,10,11,12,13,14,15,16,17,18,19],"response":{"ashamed":0,"upset":0,"strong":0,"proud":0,"excited":0,"hostile":0,"attentive":2,"active":0,"inspired":0,"distressed":0,"enthusiastic":1,"guilty":0,"irritable":0,"alert":2,"nervous":0,"determined":0,"jittery":0,"afraid":0,"interested":2,"scared":0},"trial_type":"survey-likert","time_elapsed":40980,"trial_index":0,"userId":"a39c0907-29e6-4c85-9188-b21b04ca17a6","dateTime":"2021-11-09T18:20:25.040Z","isRelevant":true},{"ua":"Mozilla/5.0 (Macintosh; Intel Mac OS X 10_15_7) AppleWebKit/537.36 (KHTML, like Gecko) Chrome/95.0.4638.69 Safari/537.36","userId":"a39c0907-29e6-4c85-9188-b21b04ca17a6","dateTime":"2021-11-09T18:20:25.043Z","isRelevant":false},{"taskStarted":true,"userId":"792390ab-56ba-47a8-8c3c-1ea452762f1c","dateTime":"2021-11-11T01:06:46.613Z","isRelevant":false},{"internal_node_id":"0.0-0.0-1.0","rt":237403,"question_order":[0,1,2,3,4,5,6,7,8,9,10,11,12,13,14,15,16,17,18,19],"response":{"ashamed":0,"upset":0,"strong":1,"proud":0,"excited":0,"hostile":0,"attentive":2,"active":0,"inspired":1,"distressed":2,"enthusiastic":1,"guilty":4,"irritable":0,"alert":1,"nervous":0,"determined":1,"jittery":0,"afraid":0,"interested":2,"scared":0},"trial_type":"survey-likert","time_elapsed":237419,"trial_index":0,"userId":"792390ab-56ba-47a8-8c3c-1ea452762f1c","dateTime":"2021-11-11T01:10:44.035Z","isRelevant":true},{"ua":"Mozilla/5.0 (Windows NT 10.0; Win64; x64) AppleWebKit/537.36 (KHTML, like Gecko) Chrome/95.0.4638.69 Safari/537.36 Edg/95.0.1020.44","userId":"792390ab-56ba-47a8-8c3c-1ea452762f1c","dateTime":"2021-11-11T01:10:44.043Z","isRelevant":false},{"taskStarted":true,"userId":"792390ab-56ba-47a8-8c3c-1ea452762f1c","dateTime":"2021-11-11T18:50:11.808Z","isRelevant":false},{"internal_node_id":"0.0-0.0-1.0","rt":37857.19999998808,"question_order":[0,1,2,3,4,5,6,7,8,9,10,11,12,13,14,15,16,17,18,19],"response":{"ashamed":0,"upset":0,"strong":1,"proud":0,"excited":1,"hostile":0,"attentive":2,"active":0,"inspired":0,"distressed":0,"enthusiastic":1,"guilty":0,"irritable":0,"alert":2,"nervous":0,"determined":1,"jittery":0,"afraid":0,"interested":1,"scared":0},"trial_type":"survey-likert","time_elapsed":37866,"trial_index":0,"userId":"792390ab-56ba-47a8-8c3c-1ea452762f1c","dateTime":"2021-11-11T18:50:49.675Z","isRelevant":true},{"ua":"Mozilla/5.0 (Windows NT 10.0; Win64; x64) AppleWebKit/537.36 (KHTML, like Gecko) Chrome/95.0.4638.69 Safari/537.36 Edg/95.0.1020.44","userId":"792390ab-56ba-47a8-8c3c-1ea452762f1c","dateTime":"2021-11-11T18:50:49.680Z","isRelevant":false},{"taskStarted":true,"userId":"792390ab-56ba-47a8-8c3c-1ea452762f1c","dateTime":"2021-11-13T06:04:37.108Z","isRelevant":false},{"trial_index":0,"internal_node_id":"0.0-0.0-0.0-0.0","success":true,"trial_type":"fullscreen","time_elapsed":1793,"userId":"792390ab-56ba-47a8-8c3c-1ea452762f1c","dateTime":"2021-11-13T06:04:38.899Z","isRelevant":false},{"internal_node_id":"0.0-0.0-1.0","rt":60728.90000000596,"question_order":[0,1,2,3,4,5,6,7,8,9,10,11,12,13,14,15,16,17,18,19],"response":{"ashamed":0,"upset":0,"strong":0,"proud":0,"excited":0,"hostile":0,"attentive":2,"active":0,"inspired":0,"distressed":0,"enthusiastic":1,"guilty":0,"irritable":0,"alert":1,"nervous":2,"determined":1,"jittery":0,"afraid":0,"interested":0,"scared":0},"trial_type":"survey-likert","time_elapsed":62552,"trial_index":1,"userId":"792390ab-56ba-47a8-8c3c-1ea452762f1c","dateTime":"2021-11-13T06:05:39.657Z","isRelevant":true},{"ua":"Mozilla/5.0 (Windows NT 10.0; Win64; x64) AppleWebKit/537.36 (KHTML, like Gecko) Chrome/95.0.4638.69 Safari/537.36","userId":"792390ab-56ba-47a8-8c3c-1ea452762f1c","dateTime":"2021-11-13T06:05:39.677Z","isRelevant":false},{"taskStarted":true,"userId":"792390ab-56ba-47a8-8c3c-1ea452762f1c","dateTime":"2021-11-13T17:09:53.072Z","isRelevant":false},{"trial_index":0,"internal_node_id":"0.0-0.0-0.0-0.0","success":true,"trial_type":"fullscreen","time_elapsed":88458,"userId":"792390ab-56ba-47a8-8c3c-1ea452762f1c","dateTime":"2021-11-13T17:11:21.530Z","isRelevant":false},{"internal_node_id":"0.0-0.0-1.0","rt":46380.5,"question_order":[0,1,2,3,4,5,6,7,8,9,10,11,12,13,14,15,16,17,18,19],"response":{"ashamed":0,"upset":0,"strong":0,"proud":0,"excited":0,"hostile":0,"attentive":2,"active":0,"inspired":0,"distressed":0,"enthusiastic":1,"guilty":0,"irritable":0,"alert":2,"nervous":0,"determined":0,"jittery":0,"afraid":0,"interested":1,"scared":0},"trial_type":"survey-likert","time_elapsed":134873,"trial_index":1,"userId":"792390ab-56ba-47a8-8c3c-1ea452762f1c","dateTime":"2021-11-13T17:12:07.941Z","isRelevant":true},{"ua":"Mozilla/5.0 (Windows NT 10.0; Win64; x64) AppleWebKit/537.36 (KHTML, like Gecko) Chrome/95.0.4638.69 Safari/537.36 Edg/95.0.1020.44","userId":"792390ab-56ba-47a8-8c3c-1ea452762f1c","dateTime":"2021-11-13T17:12:07.951Z","isRelevant":false},{"taskStarted":true,"userId":"792390ab-56ba-47a8-8c3c-1ea452762f1c","dateTime":"2021-11-15T17:41:02.156Z","isRelevant":false},{"internal_node_id":"0.0-0.0-1.0","rt":30817.799999952316,"question_order":[0,1,2,3,4,5,6,7,8,9,10,11,12,13,14,15,16,17,18,19],"response":{"ashamed":0,"upset":0,"strong":0,"proud":0,"excited":0,"hostile":0,"attentive":0,"active":0,"inspired":0,"distressed":0,"enthusiastic":1,"guilty":0,"irritable":0,"alert":2,"nervous":0,"determined":0,"jittery":0,"afraid":0,"interested":2,"scared":0},"trial_type":"survey-likert","time_elapsed":30835,"trial_index":0,"userId":"792390ab-56ba-47a8-8c3c-1ea452762f1c","dateTime":"2021-11-15T17:41:32.992Z","isRelevant":true},{"ua":"Mozilla/5.0 (Windows NT 10.0; Win64; x64) AppleWebKit/537.36 (KHTML, like Gecko) Chrome/95.0.4638.69 Safari/537.36 Edg/95.0.1020.53","userId":"792390ab-56ba-47a8-8c3c-1ea452762f1c","dateTime":"2021-11-15T17:41:33.002Z","isRelevant":false},{"taskStarted":true,"userId":"6079389f-5d71-4087-9a91-f7e150dec265","dateTime":"2021-11-09T19:58:08.180Z","isRelevant":false},{"internal_node_id":"0.0-0.0-1.0","rt":59290.699999809265,"question_order":[0,1,2,3,4,5,6,7,8,9,10,11,12,13,14,15,16,17,18,19],"response":{"ashamed":0,"upset":0,"strong":2,"proud":1,"excited":0,"hostile":0,"attentive":2,"active":2,"inspired":0,"distressed":1,"enthusiastic":1,"guilty":1,"irritable":0,"alert":2,"nervous":2,"determined":2,"jittery":0,"afraid":0,"interested":1,"scared":0},"trial_type":"survey-likert","time_elapsed":59297,"trial_index":0,"userId":"6079389f-5d71-4087-9a91-f7e150dec265","dateTime":"2021-11-09T19:59:07.477Z","isRelevant":true},{"ua":"Mozilla/5.0 (Windows NT 10.0; Win64; x64) AppleWebKit/537.36 (KHTML, like Gecko) Chrome/95.0.4638.69 Safari/537.36","userId":"6079389f-5d71-4087-9a91-f7e150dec265","dateTime":"2021-11-09T19:59:07.479Z","isRelevant":false},{"taskStarted":true,"userId":"6079389f-5d71-4087-9a91-f7e150dec265","dateTime":"2021-11-10T20:50:06.474Z","isRelevant":false},{"internal_node_id":"0.0-0.0-1.0","rt":40662.39999999851,"question_order":[0,1,2,3,4,5,6,7,8,9,10,11,12,13,14,15,16,17,18,19],"response":{"ashamed":0,"upset":1,"strong":1,"proud":0,"excited":0,"hostile":0,"attentive":2,"active":1,"inspired":0,"distressed":1,"enthusiastic":0,"guilty":0,"irritable":0,"alert":2,"nervous":1,"determined":1,"jittery":0,"afraid":0,"interested":1,"scared":0},"trial_type":"survey-likert","time_elapsed":40670,"trial_index":0,"userId":"6079389f-5d71-4087-9a91-f7e150dec265","dateTime":"2021-11-10T20:50:47.143Z","isRelevant":true},{"ua":"Mozilla/5.0 (Windows NT 10.0; Win64; x64) AppleWebKit/537.36 (KHTML, like Gecko) Chrome/95.0.4638.69 Safari/537.36","userId":"6079389f-5d71-4087-9a91-f7e150dec265","dateTime":"2021-11-10T20:50:47.146Z","isRelevant":false},{"taskStarted":true,"userId":"6079389f-5d71-4087-9a91-f7e150dec265","dateTime":"2021-11-12T06:57:40.422Z","isRelevant":false},{"trial_index":0,"internal_node_id":"0.0-0.0-0.0-0.0","success":true,"trial_type":"fullscreen","time_elapsed":1267,"userId":"6079389f-5d71-4087-9a91-f7e150dec265","dateTime":"2021-11-12T06:57:41.687Z","isRelevant":false},{"internal_node_id":"0.0-0.0-1.0","rt":34683.89999997616,"question_order":[0,1,2,3,4,5,6,7,8,9,10,11,12,13,14,15,16,17,18,19],"response":{"ashamed":0,"upset":0,"strong":1,"proud":0,"excited":0,"hostile":0,"attentive":2,"active":1,"inspired":0,"distressed":0,"enthusiastic":0,"guilty":0,"irritable":1,"alert":2,"nervous":0,"determined":2,"jittery":0,"afraid":0,"interested":1,"scared":0},"trial_type":"survey-likert","time_elapsed":35958,"trial_index":1,"userId":"6079389f-5d71-4087-9a91-f7e150dec265","dateTime":"2021-11-12T06:58:16.378Z","isRelevant":true},{"ua":"Mozilla/5.0 (Windows NT 10.0; Win64; x64) AppleWebKit/537.36 (KHTML, like Gecko) Chrome/95.0.4638.69 Safari/537.36","userId":"6079389f-5d71-4087-9a91-f7e150dec265","dateTime":"2021-11-12T06:58:16.383Z","isRelevant":false},{"taskStarted":true,"userId":"6079389f-5d71-4087-9a91-f7e150dec265","dateTime":"2021-11-15T05:08:59.166Z","isRelevant":false},{"trial_index":0,"internal_node_id":"0.0-0.0-0.0-0.0","success":true,"trial_type":"fullscreen","time_elapsed":1278,"userId":"6079389f-5d71-4087-9a91-f7e150dec265","dateTime":"2021-11-15T05:09:00.440Z","isRelevant":false},{"internal_node_id":"0.0-0.0-1.0","rt":33555.700000047684,"question_order":[0,1,2,3,4,5,6,7,8,9,10,11,12,13,14,15,16,17,18,19],"response":{"ashamed":0,"upset":1,"strong":1,"proud":0,"excited":0,"hostile":0,"attentive":2,"active":1,"inspired":0,"distressed":0,"enthusiastic":0,"guilty":0,"irritable":1,"alert":2,"nervous":2,"determined":1,"jittery":0,"afraid":0,"interested":1,"scared":0},"trial_type":"survey-likert","time_elapsed":34840,"trial_index":1,"userId":"6079389f-5d71-4087-9a91-f7e150dec265","dateTime":"2021-11-15T05:09:34.002Z","isRelevant":true},{"ua":"Mozilla/5.0 (Windows NT 10.0; Win64; x64) AppleWebKit/537.36 (KHTML, like Gecko) Chrome/95.0.4638.69 Safari/537.36","userId":"6079389f-5d71-4087-9a91-f7e150dec265","dateTime":"2021-11-15T05:09:34.011Z","isRelevant":false},{"taskStarted":true,"userId":"6079389f-5d71-4087-9a91-f7e150dec265","dateTime":"2021-11-17T19:35:35.379Z","isRelevant":false},{"internal_node_id":"0.0-0.0-1.0","rt":38185.39999997616,"question_order":[0,1,2,3,4,5,6,7,8,9,10,11,12,13,14,15,16,17,18,19],"response":{"ashamed":0,"upset":0,"strong":1,"proud":0,"excited":1,"hostile":0,"attentive":3,"active":0,"inspired":0,"distressed":0,"enthusiastic":1,"guilty":0,"irritable":1,"alert":2,"nervous":0,"determined":2,"jittery":0,"afraid":0,"interested":2,"scared":0},"trial_type":"survey-likert","time_elapsed":38193,"trial_index":0,"userId":"6079389f-5d71-4087-9a91-f7e150dec265","dateTime":"2021-11-17T19:36:13.572Z","isRelevant":true},{"ua":"Mozilla/5.0 (Windows NT 10.0; Win64; x64) AppleWebKit/537.36 (KHTML, like Gecko) Chrome/95.0.4638.69 Safari/537.36","userId":"6079389f-5d71-4087-9a91-f7e150dec265","dateTime":"2021-11-17T19:36:13.576Z","isRelevant":false},{"taskStarted":true,"userId":"8bd2c88d-a06a-48d4-8311-0ed11e6b11d6","dateTime":"2021-11-15T23:49:52.477Z","isRelevant":false},{"internal_node_id":"0.0-0.0-1.0","rt":102141.2999997139,"question_order":[0,1,2,3,4,5,6,7,8,9,10,11,12,13,14,15,16,17,18,19],"response":{"ashamed":2,"upset":2,"strong":2,"proud":2,"excited":2,"hostile":2,"attentive":2,"active":2,"inspired":2,"distressed":2,"enthusiastic":2,"guilty":2,"irritable":2,"alert":2,"nervous":2,"determined":2,"jittery":2,"afraid":2,"interested":2,"scared":2},"trial_type":"survey-likert","time_elapsed":102169,"trial_index":0,"userId":"8bd2c88d-a06a-48d4-8311-0ed11e6b11d6","dateTime":"2021-11-15T23:51:34.647Z","isRelevant":true},{"ua":"Mozilla/5.0 (Macintosh; Intel Mac OS X 10_13_6) AppleWebKit/537.36 (KHTML, like Gecko) Chrome/96.0.4664.45 Safari/537.36","userId":"8bd2c88d-a06a-48d4-8311-0ed11e6b11d6","dateTime":"2021-11-15T23:51:34.656Z","isRelevant":false},{"taskStarted":true,"userId":"0d940b94-1baf-43bf-a981-857ddf728e29","dateTime":"2021-11-09T17:20:45.187Z","isRelevant":false},{"internal_node_id":"0.0-0.0-1.0","rt":105727,"question_order":[0,1,2,3,4,5,6,7,8,9,10,11,12,13,14,15,16,17,18,19],"response":{"ashamed":0,"upset":0,"strong":2,"proud":1,"excited":1,"hostile":0,"attentive":2,"active":1,"inspired":1,"distressed":0,"enthusiastic":2,"guilty":0,"irritable":0,"alert":2,"nervous":0,"determined":2,"jittery":0,"afraid":0,"interested":2,"scared":0},"trial_type":"survey-likert","time_elapsed":105731,"trial_index":0,"userId":"0d940b94-1baf-43bf-a981-857ddf728e29","dateTime":"2021-11-09T17:22:30.917Z","isRelevant":true},{"ua":"Mozilla/5.0 (Macintosh; Intel Mac OS X 10.15; rv:94.0) Gecko/20100101 Firefox/94.0","userId":"0d940b94-1baf-43bf-a981-857ddf728e29","dateTime":"2021-11-09T17:22:30.922Z","isRelevant":false},{"taskStarted":true,"userId":"0d940b94-1baf-43bf-a981-857ddf728e29","dateTime":"2021-11-11T17:41:06.792Z","isRelevant":false},{"trial_index":0,"internal_node_id":"0.0-0.0-0.0-0.0","success":true,"trial_type":"fullscreen","time_elapsed":2092,"userId":"0d940b94-1baf-43bf-a981-857ddf728e29","dateTime":"2021-11-11T17:41:08.884Z","isRelevant":false},{"internal_node_id":"0.0-0.0-1.0","rt":70383,"question_order":[0,1,2,3,4,5,6,7,8,9,10,11,12,13,14,15,16,17,18,19],"response":{"ashamed":0,"upset":0,"strong":2,"proud":0,"excited":1,"hostile":0,"attentive":2,"active":2,"inspired":1,"distressed":0,"enthusiastic":1,"guilty":0,"irritable":1,"alert":3,"nervous":0,"determined":2,"jittery":1,"afraid":0,"interested":2,"scared":0},"trial_type":"survey-likert","time_elapsed":72487,"trial_index":1,"userId":"0d940b94-1baf-43bf-a981-857ddf728e29","dateTime":"2021-11-11T17:42:19.279Z","isRelevant":true},{"ua":"Mozilla/5.0 (Macintosh; Intel Mac OS X 10.15; rv:94.0) Gecko/20100101 Firefox/94.0","userId":"0d940b94-1baf-43bf-a981-857ddf728e29","dateTime":"2021-11-11T17:42:19.283Z","isRelevant":false},{"taskStarted":true,"userId":"0d940b94-1baf-43bf-a981-857ddf728e29","dateTime":"2021-11-14T04:22:12.203Z","isRelevant":false},{"trial_index":0,"internal_node_id":"0.0-0.0-0.0-0.0","success":true,"trial_type":"fullscreen","time_elapsed":1045,"userId":"0d940b94-1baf-43bf-a981-857ddf728e29","dateTime":"2021-11-14T04:22:13.238Z","isRelevant":false},{"internal_node_id":"0.0-0.0-1.0","rt":61340,"question_order":[0,1,2,3,4,5,6,7,8,9,10,11,12,13,14,15,16,17,18,19],"response":{"ashamed":0,"upset":0,"strong":0,"proud":1,"excited":0,"hostile":0,"attentive":1,"active":0,"inspired":1,"distressed":1,"enthusiastic":0,"guilty":0,"irritable":1,"alert":1,"nervous":1,"determined":1,"jittery":1,"afraid":0,"interested":1,"scared":0},"trial_type":"survey-likert","time_elapsed":62401,"trial_index":1,"userId":"0d940b94-1baf-43bf-a981-857ddf728e29","dateTime":"2021-11-14T04:23:14.594Z","isRelevant":true},{"ua":"Mozilla/5.0 (Macintosh; Intel Mac OS X 10.15; rv:94.0) Gecko/20100101 Firefox/94.0","userId":"0d940b94-1baf-43bf-a981-857ddf728e29","dateTime":"2021-11-14T04:23:14.605Z","isRelevant":false},{"taskStarted":true,"userId":"0d940b94-1baf-43bf-a981-857ddf728e29","dateTime":"2021-11-14T15:08:34.286Z","isRelevant":false},{"trial_index":0,"internal_node_id":"0.0-0.0-0.0-0.0","success":true,"trial_type":"fullscreen","time_elapsed":1378,"userId":"0d940b94-1baf-43bf-a981-857ddf728e29","dateTime":"2021-11-14T15:08:35.657Z","isRelevant":false},{"internal_node_id":"0.0-0.0-1.0","rt":45420,"question_order":[0,1,2,3,4,5,6,7,8,9,10,11,12,13,14,15,16,17,18,19],"response":{"ashamed":0,"upset":0,"strong":1,"proud":0,"excited":0,"hostile":0,"attentive":1,"active":0,"inspired":0,"distressed":0,"enthusiastic":0,"guilty":0,"irritable":0,"alert":2,"nervous":0,"determined":2,"jittery":0,"afraid":0,"interested":1,"scared":0},"trial_type":"survey-likert","time_elapsed":46817,"trial_index":1,"userId":"0d940b94-1baf-43bf-a981-857ddf728e29","dateTime":"2021-11-14T15:09:21.097Z","isRelevant":true},{"ua":"Mozilla/5.0 (Macintosh; Intel Mac OS X 10.15; rv:94.0) Gecko/20100101 Firefox/94.0","userId":"0d940b94-1baf-43bf-a981-857ddf728e29","dateTime":"2021-11-14T15:09:21.107Z","isRelevant":false},{"taskStarted":true,"userId":"0d940b94-1baf-43bf-a981-857ddf728e29","dateTime":"2021-11-17T23:23:32.722Z","isRelevant":false},{"trial_index":0,"internal_node_id":"0.0-0.0-0.0-0.0","success":true,"trial_type":"fullscreen","time_elapsed":2295,"userId":"0d940b94-1baf-43bf-a981-857ddf728e29","dateTime":"2021-11-17T23:23:35.017Z","isRelevant":false},{"internal_node_id":"0.0-0.0-1.0","rt":49138,"question_order":[0,1,2,3,4,5,6,7,8,9,10,11,12,13,14,15,16,17,18,19],"response":{"ashamed":0,"upset":0,"strong":0,"proud":0,"excited":0,"hostile":0,"attentive":2,"active":0,"inspired":0,"distressed":1,"enthusiastic":0,"guilty":0,"irritable":1,"alert":2,"nervous":0,"determined":2,"jittery":0,"afraid":0,"interested":1,"scared":0},"trial_type":"survey-likert","time_elapsed":51445,"trial_index":1,"userId":"0d940b94-1baf-43bf-a981-857ddf728e29","dateTime":"2021-11-17T23:24:24.167Z","isRelevant":true},{"ua":"Mozilla/5.0 (Macintosh; Intel Mac OS X 10.15; rv:94.0) Gecko/20100101 Firefox/94.0","userId":"0d940b94-1baf-43bf-a981-857ddf728e29","dateTime":"2021-11-17T23:24:24.177Z","isRelevant":false},{"taskStarted":true,"userId":"0498cbe0-60ab-45be-984d-ded9dbcdc27d","dateTime":"2021-11-05T16:58:46.836Z","isRelevant":false},{"internal_node_id":"0.0-0.0-1.0","question_order":[0,1,2,3,4,5,6,7,8,9,10,11,12,13,14,15,16,17,18,19],"response":{"active":1,"afraid":0,"alert":2,"ashamed":0,"attentive":1,"determined":1,"distressed":0,"enthusiastic":0,"excited":0,"guilty":0,"hostile":1,"inspired":0,"interested":0,"irritable":1,"jittery":0,"nervous":0,"proud":1,"scared":0,"strong":1,"upset":0},"rt":53311,"time_elapsed":53314,"trial_index":0,"trial_type":"survey-likert","userId":"0498cbe0-60ab-45be-984d-ded9dbcdc27d","dateTime":"2021-11-05T16:59:40.151Z","isRelevant":true},{"ua":"Mozilla/5.0 (Windows NT 10.0; Win64; x64) AppleWebKit/537.36 (KHTML, like Gecko) Chrome/95.0.4638.69 Safari/537.36","userId":"0498cbe0-60ab-45be-984d-ded9dbcdc27d","dateTime":"2021-11-05T16:59:40.152Z","isRelevant":false},{"taskStarted":true,"userId":"0498cbe0-60ab-45be-984d-ded9dbcdc27d","dateTime":"2021-11-06T19:04:00.700Z","isRelevant":false},{"internal_node_id":"0.0-0.0-1.0","rt":43674.59999999404,"question_order":[0,1,2,3,4,5,6,7,8,9,10,11,12,13,14,15,16,17,18,19],"response":{"ashamed":0,"upset":1,"strong":1,"proud":1,"excited":1,"hostile":1,"attentive":2,"active":1,"inspired":0,"distressed":0,"enthusiastic":1,"guilty":0,"irritable":1,"alert":0,"nervous":0,"determined":1,"jittery":0,"afraid":0,"interested":1,"scared":0},"trial_type":"survey-likert","time_elapsed":43679,"trial_index":0,"userId":"0498cbe0-60ab-45be-984d-ded9dbcdc27d","dateTime":"2021-11-06T19:04:44.378Z","isRelevant":true},{"ua":"Mozilla/5.0 (Windows NT 10.0; Win64; x64) AppleWebKit/537.36 (KHTML, like Gecko) Chrome/95.0.4638.69 Safari/537.36","userId":"0498cbe0-60ab-45be-984d-ded9dbcdc27d","dateTime":"2021-11-06T19:04:44.379Z","isRelevant":false},{"taskStarted":true,"userId":"0498cbe0-60ab-45be-984d-ded9dbcdc27d","dateTime":"2021-11-07T21:17:15.260Z","isRelevant":false},{"trial_index":0,"internal_node_id":"0.0-0.0-0.0-0.0","success":true,"trial_type":"fullscreen","time_elapsed":12074,"userId":"0498cbe0-60ab-45be-984d-ded9dbcdc27d","dateTime":"2021-11-07T21:17:27.333Z","isRelevant":false},{"internal_node_id":"0.0-0.0-1.0","rt":37614,"question_order":[0,1,2,3,4,5,6,7,8,9,10,11,12,13,14,15,16,17,18,19],"response":{"ashamed":0,"upset":0,"strong":2,"proud":1,"excited":0,"hostile":0,"attentive":2,"active":1,"inspired":1,"distressed":0,"enthusiastic":1,"guilty":0,"irritable":0,"alert":2,"nervous":0,"determined":1,"jittery":0,"afraid":0,"interested":1,"scared":0},"trial_type":"survey-likert","time_elapsed":49692,"trial_index":1,"userId":"0498cbe0-60ab-45be-984d-ded9dbcdc27d","dateTime":"2021-11-07T21:18:04.951Z","isRelevant":true},{"ua":"Mozilla/5.0 (Windows NT 10.0; Win64; x64) AppleWebKit/537.36 (KHTML, like Gecko) Chrome/95.0.4638.69 Safari/537.36","userId":"0498cbe0-60ab-45be-984d-ded9dbcdc27d","dateTime":"2021-11-07T21:18:04.955Z","isRelevant":false},{"taskStarted":true,"userId":"0498cbe0-60ab-45be-984d-ded9dbcdc27d","dateTime":"2021-11-08T20:50:27.513Z","isRelevant":false},{"trial_index":0,"internal_node_id":"0.0-0.0-0.0-0.0","success":true,"trial_type":"fullscreen","time_elapsed":1524,"userId":"0498cbe0-60ab-45be-984d-ded9dbcdc27d","dateTime":"2021-11-08T20:50:29.036Z","isRelevant":false},{"internal_node_id":"0.0-0.0-1.0","rt":31855.69999998808,"question_order":[0,1,2,3,4,5,6,7,8,9,10,11,12,13,14,15,16,17,18,19],"response":{"ashamed":0,"upset":0,"strong":1,"proud":1,"excited":0,"hostile":0,"attentive":2,"active":1,"inspired":0,"distressed":0,"enthusiastic":0,"guilty":0,"irritable":0,"alert":2,"nervous":0,"determined":0,"jittery":0,"afraid":0,"interested":0,"scared":0},"trial_type":"survey-likert","time_elapsed":33384,"trial_index":1,"userId":"0498cbe0-60ab-45be-984d-ded9dbcdc27d","dateTime":"2021-11-08T20:51:00.895Z","isRelevant":true},{"ua":"Mozilla/5.0 (Windows NT 10.0; Win64; x64) AppleWebKit/537.36 (KHTML, like Gecko) Chrome/95.0.4638.69 Safari/537.36","userId":"0498cbe0-60ab-45be-984d-ded9dbcdc27d","dateTime":"2021-11-08T20:51:00.899Z","isRelevant":false},{"taskStarted":true,"userId":"0498cbe0-60ab-45be-984d-ded9dbcdc27d","dateTime":"2021-11-10T21:12:22.404Z","isRelevant":false},{"internal_node_id":"0.0-0.0-1.0","rt":79331.70000000298,"question_order":[0,1,2,3,4,5,6,7,8,9,10,11,12,13,14,15,16,17,18,19],"response":{"ashamed":0,"upset":1,"strong":2,"proud":1,"excited":2,"hostile":1,"attentive":2,"active":1,"inspired":0,"distressed":1,"enthusiastic":1,"guilty":0,"irritable":1,"alert":2,"nervous":1,"determined":1,"jittery":0,"afraid":0,"interested":2,"scared":0},"trial_type":"survey-likert","time_elapsed":79335,"trial_index":0,"userId":"0498cbe0-60ab-45be-984d-ded9dbcdc27d","dateTime":"2021-11-10T21:13:41.740Z","isRelevant":true},{"ua":"Mozilla/5.0 (Windows NT 10.0; Win64; x64) AppleWebKit/537.36 (KHTML, like Gecko) Chrome/95.0.4638.69 Safari/537.36","userId":"0498cbe0-60ab-45be-984d-ded9dbcdc27d","dateTime":"2021-11-10T21:13:41.741Z","isRelevant":false}]
