[{"taskStarted":true,"userId":"524d2272-d17f-42aa-b335-772a7ac10972","dateTime":"2021-11-11T16:27:24.463Z","isRelevant":false},{"internal_node_id":"0.0-0.0-1.0","success":true,"trial_type":"preload","failed_images":[],"time_elapsed":140,"trial_index":0,"failed_audio":[],"failed_video":[],"timeout":false,"userId":"524d2272-d17f-42aa-b335-772a7ac10972","dateTime":"2021-11-11T16:27:24.603Z","isRelevant":false},{"internal_node_id":"0.0-0.0-2.0","rt":7064,"response":" ","trial_type":"html-keyboard-response","stimulus":"<h2>Pattern Separation Task</h2> <p> You will be tested on your memory for the objects you saw earlier. Please indicate whether each item is 1 = definitely old, 2 = maybe old, 3 = maybe new, or 4 = definitely new. “Definitely old” means you are confident that you saw the object. “Maybe old” means that you think you saw the object, but not completely sure.   ”Maybe new” means that you don’t think you saw the object, but not completely sure. “Definitely new” means you are confident that you did not see the object. </p> <em>Press the space bar to continue</em> ","time_elapsed":7206,"trial_index":1,"userId":"524d2272-d17f-42aa-b335-772a7ac10972","dateTime":"2021-11-11T16:27:31.669Z","isRelevant":false},{"internal_node_id":"0.0-0.0-3.0-0.0","rt":2054,"response":"1","trial_type":"image-keyboard-response","stimulus":"https://d3vowlh1lzbs4j.cloudfront.net/pat/diapers1.jpg","time_elapsed":9260,"isRecall":true,"trial_index":2,"pic":"diapers1.jpg","type":"Target","userId":"524d2272-d17f-42aa-b335-772a7ac10972","dateTime":"2021-11-11T16:27:33.724Z","isRelevant":true},{"internal_node_id":"0.0-0.0-3.0-0.1","rt":3127,"response":"4","trial_type":"image-keyboard-response","stimulus":"https://d3vowlh1lzbs4j.cloudfront.net/pat/domino2.jpg","time_elapsed":12390,"isRecall":true,"trial_index":3,"pic":"domino2.jpg","type":"Lure","userId":"524d2272-d17f-42aa-b335-772a7ac10972","dateTime":"2021-11-11T16:27:36.853Z","isRelevant":true},{"internal_node_id":"0.0-0.0-3.0-0.2","rt":1678,"response":"4","trial_type":"image-keyboard-response","stimulus":"https://d3vowlh1lzbs4j.cloudfront.net/pat/coffee_maker2.jpg","time_elapsed":14069,"isRecall":true,"trial_index":4,"pic":"coffee_maker2.jpg","type":"Lure","userId":"524d2272-d17f-42aa-b335-772a7ac10972","dateTime":"2021-11-11T16:27:38.532Z","isRelevant":true},{"internal_node_id":"0.0-0.0-3.0-0.3","rt":2118,"response":"2","trial_type":"image-keyboard-response","stimulus":"https://d3vowlh1lzbs4j.cloudfront.net/pat/snare_drum1.jpg","time_elapsed":16189,"isRecall":true,"trial_index":5,"pic":"snare_drum1.jpg","type":"Target","userId":"524d2272-d17f-42aa-b335-772a7ac10972","dateTime":"2021-11-11T16:27:40.652Z","isRelevant":true},{"internal_node_id":"0.0-0.0-3.0-0.4","rt":1879,"response":"1","trial_type":"image-keyboard-response","stimulus":"https://d3vowlh1lzbs4j.cloudfront.net/pat/book_objects1.jpg","time_elapsed":18070,"isRecall":true,"trial_index":6,"pic":"book_objects1.jpg","type":"Target","userId":"524d2272-d17f-42aa-b335-772a7ac10972","dateTime":"2021-11-11T16:27:42.533Z","isRelevant":true},{"internal_node_id":"0.0-0.0-3.0-0.5","rt":4015,"response":"1","trial_type":"image-keyboard-response","stimulus":"https://d3vowlh1lzbs4j.cloudfront.net/pat/box_of_nails2.jpg","time_elapsed":22085,"isRecall":true,"trial_index":7,"pic":"box_of_nails2.jpg","type":"Lure","userId":"524d2272-d17f-42aa-b335-772a7ac10972","dateTime":"2021-11-11T16:27:46.549Z","isRelevant":true},{"internal_node_id":"0.0-0.0-3.0-0.6","rt":2382,"response":"1","trial_type":"image-keyboard-response","stimulus":"https://d3vowlh1lzbs4j.cloudfront.net/pat/domino1.jpg","time_elapsed":24470,"isRecall":true,"trial_index":8,"pic":"domino1.jpg","type":"Target","userId":"524d2272-d17f-42aa-b335-772a7ac10972","dateTime":"2021-11-11T16:27:48.933Z","isRelevant":true},{"internal_node_id":"0.0-0.0-3.0-0.7","rt":1910,"response":"4","trial_type":"image-keyboard-response","stimulus":"https://d3vowlh1lzbs4j.cloudfront.net/pat/euro502.jpg","time_elapsed":26382,"isRecall":true,"trial_index":9,"pic":"euro502.jpg","type":"Lure","userId":"524d2272-d17f-42aa-b335-772a7ac10972","dateTime":"2021-11-11T16:27:50.845Z","isRelevant":true},{"internal_node_id":"0.0-0.0-3.0-0.8","rt":1511,"response":"4","trial_type":"image-keyboard-response","stimulus":"https://d3vowlh1lzbs4j.cloudfront.net/pat/polar_bear2.jpg","time_elapsed":27894,"isRecall":true,"trial_index":10,"pic":"polar_bear2.jpg","type":"Lure","userId":"524d2272-d17f-42aa-b335-772a7ac10972","dateTime":"2021-11-11T16:27:52.358Z","isRelevant":true},{"internal_node_id":"0.0-0.0-3.0-0.9","rt":1351,"response":"4","trial_type":"image-keyboard-response","stimulus":"https://d3vowlh1lzbs4j.cloudfront.net/pat/microwave_old2.jpg","time_elapsed":29246,"isRecall":true,"trial_index":11,"pic":"microwave_old2.jpg","type":"Lure","userId":"524d2272-d17f-42aa-b335-772a7ac10972","dateTime":"2021-11-11T16:27:53.709Z","isRelevant":true},{"internal_node_id":"0.0-0.0-3.0-0.10","rt":1327,"response":"4","trial_type":"image-keyboard-response","stimulus":"https://d3vowlh1lzbs4j.cloudfront.net/pat/school_bag2.jpg","time_elapsed":30574,"isRecall":true,"trial_index":12,"pic":"school_bag2.jpg","type":"Lure","userId":"524d2272-d17f-42aa-b335-772a7ac10972","dateTime":"2021-11-11T16:27:55.038Z","isRelevant":true},{"internal_node_id":"0.0-0.0-3.0-0.11","rt":1357,"response":"4","trial_type":"image-keyboard-response","stimulus":"https://d3vowlh1lzbs4j.cloudfront.net/pat/crayon2.jpg","time_elapsed":31934,"isRecall":true,"trial_index":13,"pic":"crayon2.jpg","type":"Lure","userId":"524d2272-d17f-42aa-b335-772a7ac10972","dateTime":"2021-11-11T16:27:56.397Z","isRelevant":true},{"internal_node_id":"0.0-0.0-3.0-0.12","rt":1223,"response":"4","trial_type":"image-keyboard-response","stimulus":"https://d3vowlh1lzbs4j.cloudfront.net/pat/stop_and_go1.jpg","time_elapsed":33157,"isRecall":true,"trial_index":14,"pic":"stop_and_go1.jpg","type":"New","userId":"524d2272-d17f-42aa-b335-772a7ac10972","dateTime":"2021-11-11T16:27:57.621Z","isRelevant":true},{"internal_node_id":"0.0-0.0-3.0-0.13","rt":1238,"response":"4","trial_type":"image-keyboard-response","stimulus":"https://d3vowlh1lzbs4j.cloudfront.net/pat/book_objects2.jpg","time_elapsed":34398,"isRecall":true,"trial_index":15,"pic":"book_objects2.jpg","type":"Lure","userId":"524d2272-d17f-42aa-b335-772a7ac10972","dateTime":"2021-11-11T16:27:58.861Z","isRelevant":true},{"internal_node_id":"0.0-0.0-3.0-0.14","rt":1695,"response":"1","trial_type":"image-keyboard-response","stimulus":"https://d3vowlh1lzbs4j.cloudfront.net/pat/old_alarmclock1.jpg","time_elapsed":36094,"isRecall":true,"trial_index":16,"pic":"old_alarmclock1.jpg","type":"Target","userId":"524d2272-d17f-42aa-b335-772a7ac10972","dateTime":"2021-11-11T16:28:00.557Z","isRelevant":true},{"internal_node_id":"0.0-0.0-3.0-0.15","rt":1255,"response":"1","trial_type":"image-keyboard-response","stimulus":"https://d3vowlh1lzbs4j.cloudfront.net/pat/america_flag1.jpg","time_elapsed":37350,"isRecall":true,"trial_index":17,"pic":"america_flag1.jpg","type":"Target","userId":"524d2272-d17f-42aa-b335-772a7ac10972","dateTime":"2021-11-11T16:28:01.813Z","isRelevant":true},{"internal_node_id":"0.0-0.0-3.0-0.16","rt":2718,"response":"4","trial_type":"image-keyboard-response","stimulus":"https://d3vowlh1lzbs4j.cloudfront.net/pat/camcorder_2.jpg","time_elapsed":40070,"isRecall":true,"trial_index":18,"pic":"camcorder_2.jpg","type":"Lure","userId":"524d2272-d17f-42aa-b335-772a7ac10972","dateTime":"2021-11-11T16:28:04.534Z","isRelevant":true},{"internal_node_id":"0.0-0.0-3.0-0.17","rt":1295,"response":"4","trial_type":"image-keyboard-response","stimulus":"https://d3vowlh1lzbs4j.cloudfront.net/pat/golf_bag2.jpg","time_elapsed":41366,"isRecall":true,"trial_index":19,"pic":"golf_bag2.jpg","type":"Lure","userId":"524d2272-d17f-42aa-b335-772a7ac10972","dateTime":"2021-11-11T16:28:05.829Z","isRelevant":true},{"internal_node_id":"0.0-0.0-3.0-0.18","rt":1646,"response":"1","trial_type":"image-keyboard-response","stimulus":"https://d3vowlh1lzbs4j.cloudfront.net/pat/microwave_old1.jpg","time_elapsed":43014,"isRecall":true,"trial_index":20,"pic":"microwave_old1.jpg","type":"Target","userId":"524d2272-d17f-42aa-b335-772a7ac10972","dateTime":"2021-11-11T16:28:07.477Z","isRelevant":true},{"internal_node_id":"0.0-0.0-3.0-0.19","rt":1488,"response":"1","trial_type":"image-keyboard-response","stimulus":"https://d3vowlh1lzbs4j.cloudfront.net/pat/Lipstick_1.jpg","time_elapsed":44502,"isRecall":true,"trial_index":21,"pic":"Lipstick_1.jpg","type":"Target","userId":"524d2272-d17f-42aa-b335-772a7ac10972","dateTime":"2021-11-11T16:28:08.966Z","isRelevant":true},{"internal_node_id":"0.0-0.0-3.0-0.20","rt":4919,"response":"4","trial_type":"image-keyboard-response","stimulus":"https://d3vowlh1lzbs4j.cloudfront.net/pat/Lipstick_2.jpg","time_elapsed":49422,"isRecall":true,"trial_index":22,"pic":"Lipstick_2.jpg","type":"Lure","userId":"524d2272-d17f-42aa-b335-772a7ac10972","dateTime":"2021-11-11T16:28:13.885Z","isRelevant":true},{"internal_node_id":"0.0-0.0-3.0-0.21","rt":2463,"response":"2","trial_type":"image-keyboard-response","stimulus":"https://d3vowlh1lzbs4j.cloudfront.net/pat/golf_bag1.jpg","time_elapsed":51886,"isRecall":true,"trial_index":23,"pic":"golf_bag1.jpg","type":"Target","userId":"524d2272-d17f-42aa-b335-772a7ac10972","dateTime":"2021-11-11T16:28:16.349Z","isRelevant":true},{"internal_node_id":"0.0-0.0-3.0-0.22","rt":1430,"response":"1","trial_type":"image-keyboard-response","stimulus":"https://d3vowlh1lzbs4j.cloudfront.net/pat/hockey_stick2.jpg","time_elapsed":53318,"isRecall":true,"trial_index":24,"pic":"hockey_stick2.jpg","type":"Lure","userId":"524d2272-d17f-42aa-b335-772a7ac10972","dateTime":"2021-11-11T16:28:17.782Z","isRelevant":true},{"internal_node_id":"0.0-0.0-3.0-0.23","rt":2006,"response":"1","trial_type":"image-keyboard-response","stimulus":"https://d3vowlh1lzbs4j.cloudfront.net/pat/red_box1.jpg","time_elapsed":55326,"isRecall":true,"trial_index":25,"pic":"red_box1.jpg","type":"Target","userId":"524d2272-d17f-42aa-b335-772a7ac10972","dateTime":"2021-11-11T16:28:19.790Z","isRelevant":true},{"internal_node_id":"0.0-0.0-3.0-0.24","rt":1439,"response":"1","trial_type":"image-keyboard-response","stimulus":"https://d3vowlh1lzbs4j.cloudfront.net/pat/old_alarmclock2.jpg","time_elapsed":56767,"isRecall":true,"trial_index":26,"pic":"old_alarmclock2.jpg","type":"Lure","userId":"524d2272-d17f-42aa-b335-772a7ac10972","dateTime":"2021-11-11T16:28:21.230Z","isRelevant":true},{"internal_node_id":"0.0-0.0-3.0-0.25","rt":1326,"response":"1","trial_type":"image-keyboard-response","stimulus":"https://d3vowlh1lzbs4j.cloudfront.net/pat/camcorder_1.jpg","time_elapsed":58095,"isRecall":true,"trial_index":27,"pic":"camcorder_1.jpg","type":"Target","userId":"524d2272-d17f-42aa-b335-772a7ac10972","dateTime":"2021-11-11T16:28:22.558Z","isRelevant":true},{"internal_node_id":"0.0-0.0-3.0-0.26","rt":1438,"response":"4","trial_type":"image-keyboard-response","stimulus":"https://d3vowlh1lzbs4j.cloudfront.net/pat/arrow_target2.jpg","time_elapsed":59535,"isRecall":true,"trial_index":28,"pic":"arrow_target2.jpg","type":"Lure","userId":"524d2272-d17f-42aa-b335-772a7ac10972","dateTime":"2021-11-11T16:28:23.998Z","isRelevant":true},{"internal_node_id":"0.0-0.0-3.0-0.27","rt":3423,"response":"4","trial_type":"image-keyboard-response","stimulus":"https://d3vowlh1lzbs4j.cloudfront.net/pat/first_place1.jpg","time_elapsed":62959,"isRecall":true,"trial_index":29,"pic":"first_place1.jpg","type":"Target","userId":"524d2272-d17f-42aa-b335-772a7ac10972","dateTime":"2021-11-11T16:28:27.422Z","isRelevant":true},{"internal_node_id":"0.0-0.0-3.0-0.28","rt":3062,"response":"4","trial_type":"image-keyboard-response","stimulus":"https://d3vowlh1lzbs4j.cloudfront.net/pat/baby_toy2.jpg","time_elapsed":66023,"isRecall":true,"trial_index":30,"pic":"baby_toy2.jpg","type":"Lure","userId":"524d2272-d17f-42aa-b335-772a7ac10972","dateTime":"2021-11-11T16:28:30.486Z","isRelevant":true},{"internal_node_id":"0.0-0.0-3.0-0.29","rt":1207,"response":"1","trial_type":"image-keyboard-response","stimulus":"https://d3vowlh1lzbs4j.cloudfront.net/pat/belt1.jpg","time_elapsed":67231,"isRecall":true,"trial_index":31,"pic":"belt1.jpg","type":"Target","userId":"524d2272-d17f-42aa-b335-772a7ac10972","dateTime":"2021-11-11T16:28:31.695Z","isRelevant":true},{"internal_node_id":"0.0-0.0-3.0-0.30","rt":2967,"response":"4","trial_type":"image-keyboard-response","stimulus":"https://d3vowlh1lzbs4j.cloudfront.net/pat/diapers2.jpg","time_elapsed":70199,"isRecall":true,"trial_index":32,"pic":"diapers2.jpg","type":"Lure","userId":"524d2272-d17f-42aa-b335-772a7ac10972","dateTime":"2021-11-11T16:28:34.662Z","isRelevant":true},{"internal_node_id":"0.0-0.0-3.0-0.31","rt":1375,"response":"1","trial_type":"image-keyboard-response","stimulus":"https://d3vowlh1lzbs4j.cloudfront.net/pat/euro501.jpg","time_elapsed":71575,"isRecall":true,"trial_index":33,"pic":"euro501.jpg","type":"Target","userId":"524d2272-d17f-42aa-b335-772a7ac10972","dateTime":"2021-11-11T16:28:36.038Z","isRelevant":true},{"internal_node_id":"0.0-0.0-3.0-0.32","rt":1742,"response":"1","trial_type":"image-keyboard-response","stimulus":"https://d3vowlh1lzbs4j.cloudfront.net/pat/drumset1.jpg","time_elapsed":73319,"isRecall":true,"trial_index":34,"pic":"drumset1.jpg","type":"Target","userId":"524d2272-d17f-42aa-b335-772a7ac10972","dateTime":"2021-11-11T16:28:37.782Z","isRelevant":true},{"internal_node_id":"0.0-0.0-3.0-0.33","rt":1158,"response":"1","trial_type":"image-keyboard-response","stimulus":"https://d3vowlh1lzbs4j.cloudfront.net/pat/arrow_target1.jpg","time_elapsed":74479,"isRecall":true,"trial_index":35,"pic":"arrow_target1.jpg","type":"Target","userId":"524d2272-d17f-42aa-b335-772a7ac10972","dateTime":"2021-11-11T16:28:38.942Z","isRelevant":true},{"internal_node_id":"0.0-0.0-3.0-0.34","rt":2718,"response":"4","trial_type":"image-keyboard-response","stimulus":"https://d3vowlh1lzbs4j.cloudfront.net/pat/sunglasses_1.jpg","time_elapsed":77199,"isRecall":true,"trial_index":36,"pic":"sunglasses_1.jpg","type":"New","userId":"524d2272-d17f-42aa-b335-772a7ac10972","dateTime":"2021-11-11T16:28:41.662Z","isRelevant":true},{"internal_node_id":"0.0-0.0-3.0-0.35","rt":4671,"response":"1","trial_type":"image-keyboard-response","stimulus":"https://d3vowlh1lzbs4j.cloudfront.net/pat/caterpillar2.jpg","time_elapsed":81871,"isRecall":true,"trial_index":37,"pic":"caterpillar2.jpg","type":"Lure","userId":"524d2272-d17f-42aa-b335-772a7ac10972","dateTime":"2021-11-11T16:28:46.334Z","isRelevant":true},{"internal_node_id":"0.0-0.0-3.0-0.36","rt":2239,"response":"2","trial_type":"image-keyboard-response","stimulus":"https://d3vowlh1lzbs4j.cloudfront.net/pat/computer_keys2.jpg","time_elapsed":84111,"isRecall":true,"trial_index":38,"pic":"computer_keys2.jpg","type":"Lure","userId":"524d2272-d17f-42aa-b335-772a7ac10972","dateTime":"2021-11-11T16:28:48.574Z","isRelevant":true},{"internal_node_id":"0.0-0.0-3.0-0.37","rt":5254,"response":"1","trial_type":"image-keyboard-response","stimulus":"https://d3vowlh1lzbs4j.cloudfront.net/pat/box_of_nails1.jpg","time_elapsed":89367,"isRecall":true,"trial_index":39,"pic":"box_of_nails1.jpg","type":"Target","userId":"524d2272-d17f-42aa-b335-772a7ac10972","dateTime":"2021-11-11T16:28:53.830Z","isRelevant":true},{"internal_node_id":"0.0-0.0-3.0-0.38","rt":1175,"response":"4","trial_type":"image-keyboard-response","stimulus":"https://d3vowlh1lzbs4j.cloudfront.net/pat/sweater1.jpg","time_elapsed":90543,"isRecall":true,"trial_index":40,"pic":"sweater1.jpg","type":"New","userId":"524d2272-d17f-42aa-b335-772a7ac10972","dateTime":"2021-11-11T16:28:55.007Z","isRelevant":true},{"internal_node_id":"0.0-0.0-3.0-0.39","rt":1591,"response":"1","trial_type":"image-keyboard-response","stimulus":"https://d3vowlh1lzbs4j.cloudfront.net/pat/baby_toy1.jpg","time_elapsed":92136,"isRecall":true,"trial_index":41,"pic":"baby_toy1.jpg","type":"Target","userId":"524d2272-d17f-42aa-b335-772a7ac10972","dateTime":"2021-11-11T16:28:56.599Z","isRelevant":true},{"internal_node_id":"0.0-0.0-3.0-0.40","rt":1767,"response":"1","trial_type":"image-keyboard-response","stimulus":"https://d3vowlh1lzbs4j.cloudfront.net/pat/chutes_and_ladders1.jpg","time_elapsed":93903,"isRecall":true,"trial_index":42,"pic":"chutes_and_ladders1.jpg","type":"Target","userId":"524d2272-d17f-42aa-b335-772a7ac10972","dateTime":"2021-11-11T16:28:58.367Z","isRelevant":true},{"internal_node_id":"0.0-0.0-3.0-0.41","rt":1366,"response":"4","trial_type":"image-keyboard-response","stimulus":"https://d3vowlh1lzbs4j.cloudfront.net/pat/belt2.jpg","time_elapsed":95271,"isRecall":true,"trial_index":43,"pic":"belt2.jpg","type":"Lure","userId":"524d2272-d17f-42aa-b335-772a7ac10972","dateTime":"2021-11-11T16:28:59.735Z","isRelevant":true},{"internal_node_id":"0.0-0.0-3.0-0.42","rt":2198,"response":"2","trial_type":"image-keyboard-response","stimulus":"https://d3vowlh1lzbs4j.cloudfront.net/pat/drumset2.jpg","time_elapsed":97472,"isRecall":true,"trial_index":44,"pic":"drumset2.jpg","type":"Lure","userId":"524d2272-d17f-42aa-b335-772a7ac10972","dateTime":"2021-11-11T16:29:01.935Z","isRelevant":true},{"internal_node_id":"0.0-0.0-3.0-0.43","rt":1415,"response":"1","trial_type":"image-keyboard-response","stimulus":"https://d3vowlh1lzbs4j.cloudfront.net/pat/crayon1.jpg","time_elapsed":98888,"isRecall":true,"trial_index":45,"pic":"crayon1.jpg","type":"Target","userId":"524d2272-d17f-42aa-b335-772a7ac10972","dateTime":"2021-11-11T16:29:03.351Z","isRelevant":true},{"internal_node_id":"0.0-0.0-3.0-0.44","rt":1279,"response":"1","trial_type":"image-keyboard-response","stimulus":"https://d3vowlh1lzbs4j.cloudfront.net/pat/bulldozer1.jpg","time_elapsed":100168,"isRecall":true,"trial_index":46,"pic":"bulldozer1.jpg","type":"Target","userId":"524d2272-d17f-42aa-b335-772a7ac10972","dateTime":"2021-11-11T16:29:04.631Z","isRelevant":true},{"internal_node_id":"0.0-0.0-3.0-0.45","rt":1327,"response":"4","trial_type":"image-keyboard-response","stimulus":"https://d3vowlh1lzbs4j.cloudfront.net/pat/swingset1.jpg","time_elapsed":101496,"isRecall":true,"trial_index":47,"pic":"swingset1.jpg","type":"New","userId":"524d2272-d17f-42aa-b335-772a7ac10972","dateTime":"2021-11-11T16:29:05.959Z","isRelevant":true},{"internal_node_id":"0.0-0.0-3.0-0.46","rt":2335,"response":"2","trial_type":"image-keyboard-response","stimulus":"https://d3vowlh1lzbs4j.cloudfront.net/pat/computer_keys1.jpg","time_elapsed":103831,"isRecall":true,"trial_index":48,"pic":"computer_keys1.jpg","type":"Target","userId":"524d2272-d17f-42aa-b335-772a7ac10972","dateTime":"2021-11-11T16:29:08.295Z","isRelevant":true},{"internal_node_id":"0.0-0.0-3.0-0.47","rt":1311,"response":"4","trial_type":"image-keyboard-response","stimulus":"https://d3vowlh1lzbs4j.cloudfront.net/pat/snare_drum2.jpg","time_elapsed":105144,"isRecall":true,"trial_index":49,"pic":"snare_drum2.jpg","type":"Lure","userId":"524d2272-d17f-42aa-b335-772a7ac10972","dateTime":"2021-11-11T16:29:09.607Z","isRelevant":true},{"internal_node_id":"0.0-0.0-3.0-0.48","rt":1119,"response":"4","trial_type":"image-keyboard-response","stimulus":"https://d3vowlh1lzbs4j.cloudfront.net/pat/wetsuit1.jpg","time_elapsed":106264,"isRecall":true,"trial_index":50,"pic":"wetsuit1.jpg","type":"New","userId":"524d2272-d17f-42aa-b335-772a7ac10972","dateTime":"2021-11-11T16:29:10.727Z","isRelevant":true},{"internal_node_id":"0.0-0.0-3.0-0.49","rt":1366,"response":"4","trial_type":"image-keyboard-response","stimulus":"https://d3vowlh1lzbs4j.cloudfront.net/pat/polar_bear1.jpg","time_elapsed":107632,"isRecall":true,"trial_index":51,"pic":"polar_bear1.jpg","type":"Target","userId":"524d2272-d17f-42aa-b335-772a7ac10972","dateTime":"2021-11-11T16:29:12.095Z","isRelevant":true},{"internal_node_id":"0.0-0.0-3.0-0.50","rt":1375,"response":"4","trial_type":"image-keyboard-response","stimulus":"https://d3vowlh1lzbs4j.cloudfront.net/pat/first_place2.jpg","time_elapsed":109008,"isRecall":true,"trial_index":52,"pic":"first_place2.jpg","type":"Lure","userId":"524d2272-d17f-42aa-b335-772a7ac10972","dateTime":"2021-11-11T16:29:13.472Z","isRelevant":true},{"internal_node_id":"0.0-0.0-3.0-0.51","rt":1383,"response":"1","trial_type":"image-keyboard-response","stimulus":"https://d3vowlh1lzbs4j.cloudfront.net/pat/key_chain1.jpg","time_elapsed":110392,"isRecall":true,"trial_index":53,"pic":"key_chain1.jpg","type":"Target","userId":"524d2272-d17f-42aa-b335-772a7ac10972","dateTime":"2021-11-11T16:29:14.855Z","isRelevant":true},{"internal_node_id":"0.0-0.0-3.0-0.52","rt":1407,"response":"1","trial_type":"image-keyboard-response","stimulus":"https://d3vowlh1lzbs4j.cloudfront.net/pat/pen_green1.jpg","time_elapsed":111801,"isRecall":true,"trial_index":54,"pic":"pen_green1.jpg","type":"Target","userId":"524d2272-d17f-42aa-b335-772a7ac10972","dateTime":"2021-11-11T16:29:16.264Z","isRelevant":true},{"internal_node_id":"0.0-0.0-3.0-0.53","rt":1262,"response":"4","trial_type":"image-keyboard-response","stimulus":"https://d3vowlh1lzbs4j.cloudfront.net/pat/pen_green2.jpg","time_elapsed":113064,"isRecall":true,"trial_index":55,"pic":"pen_green2.jpg","type":"Lure","userId":"524d2272-d17f-42aa-b335-772a7ac10972","dateTime":"2021-11-11T16:29:17.527Z","isRelevant":true},{"internal_node_id":"0.0-0.0-3.0-0.54","rt":6030,"response":"1","trial_type":"image-keyboard-response","stimulus":"https://d3vowlh1lzbs4j.cloudfront.net/pat/caterpillar1.jpg","time_elapsed":119096,"isRecall":true,"trial_index":56,"pic":"caterpillar1.jpg","type":"Target","userId":"524d2272-d17f-42aa-b335-772a7ac10972","dateTime":"2021-11-11T16:29:23.559Z","isRelevant":true},{"internal_node_id":"0.0-0.0-3.0-0.55","rt":1215,"response":"4","trial_type":"image-keyboard-response","stimulus":"https://d3vowlh1lzbs4j.cloudfront.net/pat/chutes_and_ladders2.jpg","time_elapsed":120313,"isRecall":true,"trial_index":57,"pic":"chutes_and_ladders2.jpg","type":"Lure","userId":"524d2272-d17f-42aa-b335-772a7ac10972","dateTime":"2021-11-11T16:29:24.776Z","isRelevant":true},{"internal_node_id":"0.0-0.0-3.0-0.56","rt":1159,"response":"4","trial_type":"image-keyboard-response","stimulus":"https://d3vowlh1lzbs4j.cloudfront.net/pat/stroller_aqua1.jpg","time_elapsed":121473,"isRecall":true,"trial_index":58,"pic":"stroller_aqua1.jpg","type":"New","userId":"524d2272-d17f-42aa-b335-772a7ac10972","dateTime":"2021-11-11T16:29:25.936Z","isRelevant":true},{"internal_node_id":"0.0-0.0-3.0-0.57","rt":1311,"response":"1","trial_type":"image-keyboard-response","stimulus":"https://d3vowlh1lzbs4j.cloudfront.net/pat/football1.jpg","time_elapsed":122784,"isRecall":true,"trial_index":59,"pic":"football1.jpg","type":"Target","userId":"524d2272-d17f-42aa-b335-772a7ac10972","dateTime":"2021-11-11T16:29:27.248Z","isRelevant":true},{"internal_node_id":"0.0-0.0-3.0-0.58","rt":2158,"response":"4","trial_type":"image-keyboard-response","stimulus":"https://d3vowlh1lzbs4j.cloudfront.net/pat/bulldozer2.jpg","time_elapsed":124945,"isRecall":true,"trial_index":60,"pic":"bulldozer2.jpg","type":"Lure","userId":"524d2272-d17f-42aa-b335-772a7ac10972","dateTime":"2021-11-11T16:29:29.408Z","isRelevant":true},{"internal_node_id":"0.0-0.0-3.0-0.59","rt":2398,"response":"2","trial_type":"image-keyboard-response","stimulus":"https://d3vowlh1lzbs4j.cloudfront.net/pat/hockey_stick1.jpg","time_elapsed":127344,"isRecall":true,"trial_index":61,"pic":"hockey_stick1.jpg","type":"Target","userId":"524d2272-d17f-42aa-b335-772a7ac10972","dateTime":"2021-11-11T16:29:31.808Z","isRelevant":true},{"internal_node_id":"0.0-0.0-3.0-0.60","rt":1447,"response":"4","trial_type":"image-keyboard-response","stimulus":"https://d3vowlh1lzbs4j.cloudfront.net/pat/key_chain2.jpg","time_elapsed":128792,"isRecall":true,"trial_index":62,"pic":"key_chain2.jpg","type":"Lure","userId":"524d2272-d17f-42aa-b335-772a7ac10972","dateTime":"2021-11-11T16:29:33.255Z","isRelevant":true},{"internal_node_id":"0.0-0.0-3.0-0.61","rt":1951,"response":"2","trial_type":"image-keyboard-response","stimulus":"https://d3vowlh1lzbs4j.cloudfront.net/pat/football2.jpg","time_elapsed":130746,"isRecall":true,"trial_index":63,"pic":"football2.jpg","type":"Lure","userId":"524d2272-d17f-42aa-b335-772a7ac10972","dateTime":"2021-11-11T16:29:35.209Z","isRelevant":true},{"internal_node_id":"0.0-0.0-3.0-0.62","rt":1893,"response":"1","trial_type":"image-keyboard-response","stimulus":"https://d3vowlh1lzbs4j.cloudfront.net/pat/coffee_maker1.jpg","time_elapsed":132641,"isRecall":true,"trial_index":64,"pic":"coffee_maker1.jpg","type":"Target","userId":"524d2272-d17f-42aa-b335-772a7ac10972","dateTime":"2021-11-11T16:29:37.104Z","isRelevant":true},{"internal_node_id":"0.0-0.0-3.0-0.63","rt":1943,"response":"4","trial_type":"image-keyboard-response","stimulus":"https://d3vowlh1lzbs4j.cloudfront.net/pat/red_box2.jpg","time_elapsed":134584,"isRecall":true,"trial_index":65,"pic":"red_box2.jpg","type":"Lure","userId":"524d2272-d17f-42aa-b335-772a7ac10972","dateTime":"2021-11-11T16:29:39.048Z","isRelevant":true},{"internal_node_id":"0.0-0.0-3.0-0.64","rt":1806,"response":"1","trial_type":"image-keyboard-response","stimulus":"https://d3vowlh1lzbs4j.cloudfront.net/pat/school_bag1.jpg","time_elapsed":136392,"isRecall":true,"trial_index":66,"pic":"school_bag1.jpg","type":"Target","userId":"524d2272-d17f-42aa-b335-772a7ac10972","dateTime":"2021-11-11T16:29:40.856Z","isRelevant":true},{"internal_node_id":"0.0-0.0-3.0-0.65","rt":1238,"response":"4","trial_type":"image-keyboard-response","stimulus":"https://d3vowlh1lzbs4j.cloudfront.net/pat/america_flag2.jpg","time_elapsed":137633,"isRecall":true,"trial_index":67,"pic":"america_flag2.jpg","type":"Lure","userId":"524d2272-d17f-42aa-b335-772a7ac10972","dateTime":"2021-11-11T16:29:42.096Z","isRelevant":true},{"ua":"Mozilla/5.0 (Macintosh; Intel Mac OS X 10.15; rv:94.0) Gecko/20100101 Firefox/94.0","userId":"524d2272-d17f-42aa-b335-772a7ac10972","dateTime":"2021-11-11T16:29:42.097Z","isRelevant":false},{"taskStarted":true,"userId":"524d2272-d17f-42aa-b335-772a7ac10972","dateTime":"2021-11-13T22:51:47.706Z","isRelevant":false},{"internal_node_id":"0.0-0.0-1.0","success":true,"trial_type":"preload","failed_images":[],"time_elapsed":534,"trial_index":0,"failed_audio":[],"failed_video":[],"timeout":false,"userId":"524d2272-d17f-42aa-b335-772a7ac10972","dateTime":"2021-11-13T22:51:48.240Z","isRelevant":false},{"internal_node_id":"0.0-0.0-2.0","rt":5686,"response":" ","trial_type":"html-keyboard-response","stimulus":"<h2>Pattern Separation Task</h2> <p> You will be tested on your memory for the objects you saw earlier. Please indicate whether each item is 1 = definitely old, 2 = maybe old, 3 = maybe new, or 4 = definitely new. “Definitely old” means you are confident that you saw the object. “Maybe old” means that you think you saw the object, but not completely sure.   ”Maybe new” means that you don’t think you saw the object, but not completely sure. “Definitely new” means you are confident that you did not see the object. </p> <em>Press the space bar to continue</em> ","time_elapsed":6222,"trial_index":1,"userId":"524d2272-d17f-42aa-b335-772a7ac10972","dateTime":"2021-11-13T22:51:53.928Z","isRelevant":false},{"internal_node_id":"0.0-0.0-3.0-0.0","rt":2830,"response":"4","trial_type":"image-keyboard-response","stimulus":"https://d3vowlh1lzbs4j.cloudfront.net/pat/clothes_iron2.jpg","time_elapsed":9054,"isRecall":true,"trial_index":2,"pic":"clothes_iron2.jpg","type":"Lure","userId":"524d2272-d17f-42aa-b335-772a7ac10972","dateTime":"2021-11-13T22:51:56.760Z","isRelevant":true},{"internal_node_id":"0.0-0.0-3.0-0.1","rt":3510,"response":"2","trial_type":"image-keyboard-response","stimulus":"https://d3vowlh1lzbs4j.cloudfront.net/pat/dirtbug2.jpg","time_elapsed":12566,"isRecall":true,"trial_index":3,"pic":"dirtbug2.jpg","type":"Lure","userId":"524d2272-d17f-42aa-b335-772a7ac10972","dateTime":"2021-11-13T22:52:00.272Z","isRelevant":true},{"internal_node_id":"0.0-0.0-3.0-0.2","rt":3223,"response":"2","trial_type":"image-keyboard-response","stimulus":"https://d3vowlh1lzbs4j.cloudfront.net/pat/cookie_stir2.jpg","time_elapsed":15790,"isRecall":true,"trial_index":4,"pic":"cookie_stir2.jpg","type":"Lure","userId":"524d2272-d17f-42aa-b335-772a7ac10972","dateTime":"2021-11-13T22:52:03.496Z","isRelevant":true},{"internal_node_id":"0.0-0.0-3.0-0.3","rt":1783,"response":"1","trial_type":"image-keyboard-response","stimulus":"https://d3vowlh1lzbs4j.cloudfront.net/pat/stacked_chairs1.jpg","time_elapsed":17575,"isRecall":true,"trial_index":5,"pic":"stacked_chairs1.jpg","type":"Target","userId":"524d2272-d17f-42aa-b335-772a7ac10972","dateTime":"2021-11-13T22:52:05.281Z","isRelevant":true},{"internal_node_id":"0.0-0.0-3.0-0.4","rt":1295,"response":"1","trial_type":"image-keyboard-response","stimulus":"https://d3vowlh1lzbs4j.cloudfront.net/pat/deep_fryer1.jpg","time_elapsed":18870,"isRecall":true,"trial_index":6,"pic":"deep_fryer1.jpg","type":"Target","userId":"524d2272-d17f-42aa-b335-772a7ac10972","dateTime":"2021-11-13T22:52:06.576Z","isRelevant":true},{"internal_node_id":"0.0-0.0-3.0-0.5","rt":1111,"response":"1","trial_type":"image-keyboard-response","stimulus":"https://d3vowlh1lzbs4j.cloudfront.net/pat/road_sign2.jpg","time_elapsed":19983,"isRecall":true,"trial_index":7,"pic":"road_sign2.jpg","type":"Lure","userId":"524d2272-d17f-42aa-b335-772a7ac10972","dateTime":"2021-11-13T22:52:07.689Z","isRelevant":true},{"internal_node_id":"0.0-0.0-3.0-0.6","rt":2519,"response":"4","trial_type":"image-keyboard-response","stimulus":"https://d3vowlh1lzbs4j.cloudfront.net/pat/deep_fryer2.jpg","time_elapsed":22502,"isRecall":true,"trial_index":8,"pic":"deep_fryer2.jpg","type":"Lure","userId":"524d2272-d17f-42aa-b335-772a7ac10972","dateTime":"2021-11-13T22:52:10.209Z","isRelevant":true},{"internal_node_id":"0.0-0.0-3.0-0.7","rt":1591,"response":"1","trial_type":"image-keyboard-response","stimulus":"https://d3vowlh1lzbs4j.cloudfront.net/pat/hatbox1.jpg","time_elapsed":24095,"isRecall":true,"trial_index":9,"pic":"hatbox1.jpg","type":"Target","userId":"524d2272-d17f-42aa-b335-772a7ac10972","dateTime":"2021-11-13T22:52:11.801Z","isRelevant":true},{"internal_node_id":"0.0-0.0-3.0-0.8","rt":2864,"response":"2","trial_type":"image-keyboard-response","stimulus":"https://d3vowlh1lzbs4j.cloudfront.net/pat/dirtbug1.jpg","time_elapsed":26959,"isRecall":true,"trial_index":10,"pic":"dirtbug1.jpg","type":"Target","userId":"524d2272-d17f-42aa-b335-772a7ac10972","dateTime":"2021-11-13T22:52:14.665Z","isRelevant":true},{"internal_node_id":"0.0-0.0-3.0-0.9","rt":1446,"response":"4","trial_type":"image-keyboard-response","stimulus":"https://d3vowlh1lzbs4j.cloudfront.net/pat/babywalker_2.jpg","time_elapsed":28407,"isRecall":true,"trial_index":11,"pic":"babywalker_2.jpg","type":"Lure","userId":"524d2272-d17f-42aa-b335-772a7ac10972","dateTime":"2021-11-13T22:52:16.113Z","isRelevant":true},{"internal_node_id":"0.0-0.0-3.0-0.10","rt":3078,"response":"4","trial_type":"image-keyboard-response","stimulus":"https://d3vowlh1lzbs4j.cloudfront.net/pat/chapstick2.jpg","time_elapsed":31487,"isRecall":true,"trial_index":12,"pic":"chapstick2.jpg","type":"Lure","userId":"524d2272-d17f-42aa-b335-772a7ac10972","dateTime":"2021-11-13T22:52:19.193Z","isRelevant":true},{"internal_node_id":"0.0-0.0-3.0-0.11","rt":5816,"response":"2","trial_type":"image-keyboard-response","stimulus":"https://d3vowlh1lzbs4j.cloudfront.net/pat/books2.jpg","time_elapsed":37303,"isRecall":true,"trial_index":13,"pic":"books2.jpg","type":"Lure","userId":"524d2272-d17f-42aa-b335-772a7ac10972","dateTime":"2021-11-13T22:52:25.009Z","isRelevant":true},{"internal_node_id":"0.0-0.0-3.0-0.12","rt":3198,"response":"2","trial_type":"image-keyboard-response","stimulus":"https://d3vowlh1lzbs4j.cloudfront.net/pat/paper_holder2.jpg","time_elapsed":40503,"isRecall":true,"trial_index":14,"pic":"paper_holder2.jpg","type":"Lure","userId":"524d2272-d17f-42aa-b335-772a7ac10972","dateTime":"2021-11-13T22:52:28.210Z","isRelevant":true},{"internal_node_id":"0.0-0.0-3.0-0.13","rt":1630,"response":"4","trial_type":"image-keyboard-response","stimulus":"https://d3vowlh1lzbs4j.cloudfront.net/pat/menorah2.jpg","time_elapsed":42135,"isRecall":true,"trial_index":15,"pic":"menorah2.jpg","type":"Lure","userId":"524d2272-d17f-42aa-b335-772a7ac10972","dateTime":"2021-11-13T22:52:29.841Z","isRelevant":true},{"internal_node_id":"0.0-0.0-3.0-0.14","rt":3455,"response":"4","trial_type":"image-keyboard-response","stimulus":"https://d3vowlh1lzbs4j.cloudfront.net/pat/dreidel2.jpg","time_elapsed":45592,"isRecall":true,"trial_index":16,"pic":"dreidel2.jpg","type":"Lure","userId":"524d2272-d17f-42aa-b335-772a7ac10972","dateTime":"2021-11-13T22:52:33.298Z","isRelevant":true},{"internal_node_id":"0.0-0.0-3.0-0.15","rt":5286,"response":"2","trial_type":"image-keyboard-response","stimulus":"https://d3vowlh1lzbs4j.cloudfront.net/pat/Jeans_1.jpg","time_elapsed":50879,"isRecall":true,"trial_index":17,"pic":"Jeans_1.jpg","type":"Target","userId":"524d2272-d17f-42aa-b335-772a7ac10972","dateTime":"2021-11-13T22:52:38.585Z","isRelevant":true},{"internal_node_id":"0.0-0.0-3.0-0.16","rt":3455,"response":"2","trial_type":"image-keyboard-response","stimulus":"https://d3vowlh1lzbs4j.cloudfront.net/pat/film_reel2.jpg","time_elapsed":54336,"isRecall":true,"trial_index":18,"pic":"film_reel2.jpg","type":"Lure","userId":"524d2272-d17f-42aa-b335-772a7ac10972","dateTime":"2021-11-13T22:52:42.042Z","isRelevant":true},{"internal_node_id":"0.0-0.0-3.0-0.17","rt":2231,"response":"4","trial_type":"image-keyboard-response","stimulus":"https://d3vowlh1lzbs4j.cloudfront.net/pat/Markers_2.jpg","time_elapsed":56567,"isRecall":true,"trial_index":19,"pic":"Markers_2.jpg","type":"Lure","userId":"524d2272-d17f-42aa-b335-772a7ac10972","dateTime":"2021-11-13T22:52:44.274Z","isRelevant":true},{"internal_node_id":"0.0-0.0-3.0-0.18","rt":1270,"response":"4","trial_type":"image-keyboard-response","stimulus":"https://d3vowlh1lzbs4j.cloudfront.net/pat/thumbtack1.jpg","time_elapsed":57840,"isRecall":true,"trial_index":20,"pic":"thumbtack1.jpg","type":"New","userId":"524d2272-d17f-42aa-b335-772a7ac10972","dateTime":"2021-11-13T22:52:45.546Z","isRelevant":true},{"internal_node_id":"0.0-0.0-3.0-0.19","rt":2391,"response":"4","trial_type":"image-keyboard-response","stimulus":"https://d3vowlh1lzbs4j.cloudfront.net/pat/atv2.jpg","time_elapsed":60232,"isRecall":true,"trial_index":21,"pic":"atv2.jpg","type":"Lure","userId":"524d2272-d17f-42aa-b335-772a7ac10972","dateTime":"2021-11-13T22:52:47.938Z","isRelevant":true},{"internal_node_id":"0.0-0.0-3.0-0.20","rt":2504,"response":"1","trial_type":"image-keyboard-response","stimulus":"https://d3vowlh1lzbs4j.cloudfront.net/pat/paper_holder1.jpg","time_elapsed":62736,"isRecall":true,"trial_index":22,"pic":"paper_holder1.jpg","type":"Target","userId":"524d2272-d17f-42aa-b335-772a7ac10972","dateTime":"2021-11-13T22:52:50.442Z","isRelevant":true},{"internal_node_id":"0.0-0.0-3.0-0.21","rt":2782,"response":"3","trial_type":"image-keyboard-response","stimulus":"https://d3vowlh1lzbs4j.cloudfront.net/pat/flash_light2.jpg","time_elapsed":65521,"isRecall":true,"trial_index":23,"pic":"flash_light2.jpg","type":"Lure","userId":"524d2272-d17f-42aa-b335-772a7ac10972","dateTime":"2021-11-13T22:52:53.227Z","isRelevant":true},{"internal_node_id":"0.0-0.0-3.0-0.22","rt":6942,"response":"1","trial_type":"image-keyboard-response","stimulus":"https://d3vowlh1lzbs4j.cloudfront.net/pat/gold_fishy2.jpg","time_elapsed":72465,"isRecall":true,"trial_index":24,"pic":"gold_fishy2.jpg","type":"Lure","userId":"524d2272-d17f-42aa-b335-772a7ac10972","dateTime":"2021-11-13T22:53:00.171Z","isRelevant":true},{"internal_node_id":"0.0-0.0-3.0-0.23","rt":1678,"response":"1","trial_type":"image-keyboard-response","stimulus":"https://d3vowlh1lzbs4j.cloudfront.net/pat/Broom_1.jpg","time_elapsed":74144,"isRecall":true,"trial_index":25,"pic":"Broom_1.jpg","type":"Target","userId":"524d2272-d17f-42aa-b335-772a7ac10972","dateTime":"2021-11-13T22:53:01.850Z","isRelevant":true},{"internal_node_id":"0.0-0.0-3.0-0.24","rt":3288,"response":"1","trial_type":"image-keyboard-response","stimulus":"https://d3vowlh1lzbs4j.cloudfront.net/pat/books1.jpg","time_elapsed":77432,"isRecall":true,"trial_index":26,"pic":"books1.jpg","type":"Target","userId":"524d2272-d17f-42aa-b335-772a7ac10972","dateTime":"2021-11-13T22:53:05.139Z","isRelevant":true},{"internal_node_id":"0.0-0.0-3.0-0.25","rt":3078,"response":"2","trial_type":"image-keyboard-response","stimulus":"https://d3vowlh1lzbs4j.cloudfront.net/pat/atv1.jpg","time_elapsed":80513,"isRecall":true,"trial_index":27,"pic":"atv1.jpg","type":"Target","userId":"524d2272-d17f-42aa-b335-772a7ac10972","dateTime":"2021-11-13T22:53:08.219Z","isRelevant":true},{"internal_node_id":"0.0-0.0-3.0-0.26","rt":3798,"response":"3","trial_type":"image-keyboard-response","stimulus":"https://d3vowlh1lzbs4j.cloudfront.net/pat/BWPK2.jpg","time_elapsed":84312,"isRecall":true,"trial_index":28,"pic":"BWPK2.jpg","type":"Lure","userId":"524d2272-d17f-42aa-b335-772a7ac10972","dateTime":"2021-11-13T22:53:12.018Z","isRelevant":true},{"internal_node_id":"0.0-0.0-3.0-0.27","rt":1911,"response":"4","trial_type":"image-keyboard-response","stimulus":"https://d3vowlh1lzbs4j.cloudfront.net/pat/altoids2.jpg","time_elapsed":86225,"isRecall":true,"trial_index":29,"pic":"altoids2.jpg","type":"Lure","userId":"524d2272-d17f-42aa-b335-772a7ac10972","dateTime":"2021-11-13T22:53:13.931Z","isRelevant":true},{"internal_node_id":"0.0-0.0-3.0-0.28","rt":3375,"response":"2","trial_type":"image-keyboard-response","stimulus":"https://d3vowlh1lzbs4j.cloudfront.net/pat/outdoor_thermo1.jpg","time_elapsed":89601,"isRecall":true,"trial_index":30,"pic":"outdoor_thermo1.jpg","type":"Target","userId":"524d2272-d17f-42aa-b335-772a7ac10972","dateTime":"2021-11-13T22:53:17.307Z","isRelevant":true},{"internal_node_id":"0.0-0.0-3.0-0.29","rt":1607,"response":"4","trial_type":"image-keyboard-response","stimulus":"https://d3vowlh1lzbs4j.cloudfront.net/pat/seahorse2.jpg","time_elapsed":91209,"isRecall":true,"trial_index":31,"pic":"seahorse2.jpg","type":"Lure","userId":"524d2272-d17f-42aa-b335-772a7ac10972","dateTime":"2021-11-13T22:53:18.915Z","isRelevant":true},{"internal_node_id":"0.0-0.0-3.0-0.30","rt":2542,"response":"1","trial_type":"image-keyboard-response","stimulus":"https://d3vowlh1lzbs4j.cloudfront.net/pat/film_reel1.jpg","time_elapsed":93752,"isRecall":true,"trial_index":32,"pic":"film_reel1.jpg","type":"Target","userId":"524d2272-d17f-42aa-b335-772a7ac10972","dateTime":"2021-11-13T22:53:21.459Z","isRelevant":true},{"internal_node_id":"0.0-0.0-3.0-0.31","rt":2527,"response":"2","trial_type":"image-keyboard-response","stimulus":"https://d3vowlh1lzbs4j.cloudfront.net/pat/outdoor_thermo2.jpg","time_elapsed":96281,"isRecall":true,"trial_index":33,"pic":"outdoor_thermo2.jpg","type":"Lure","userId":"524d2272-d17f-42aa-b335-772a7ac10972","dateTime":"2021-11-13T22:53:23.987Z","isRelevant":true},{"internal_node_id":"0.0-0.0-3.0-0.32","rt":3071,"response":"4","trial_type":"image-keyboard-response","stimulus":"https://d3vowlh1lzbs4j.cloudfront.net/pat/tin_box1.jpg","time_elapsed":99354,"isRecall":true,"trial_index":34,"pic":"tin_box1.jpg","type":"New","userId":"524d2272-d17f-42aa-b335-772a7ac10972","dateTime":"2021-11-13T22:53:27.060Z","isRelevant":true},{"internal_node_id":"0.0-0.0-3.0-0.33","rt":1774,"response":"1","trial_type":"image-keyboard-response","stimulus":"https://d3vowlh1lzbs4j.cloudfront.net/pat/road_sign1.jpg","time_elapsed":101129,"isRecall":true,"trial_index":35,"pic":"road_sign1.jpg","type":"Target","userId":"524d2272-d17f-42aa-b335-772a7ac10972","dateTime":"2021-11-13T22:53:28.835Z","isRelevant":true},{"internal_node_id":"0.0-0.0-3.0-0.34","rt":3182,"response":"1","trial_type":"image-keyboard-response","stimulus":"https://d3vowlh1lzbs4j.cloudfront.net/pat/BWPK1.jpg","time_elapsed":104314,"isRecall":true,"trial_index":36,"pic":"BWPK1.jpg","type":"Target","userId":"524d2272-d17f-42aa-b335-772a7ac10972","dateTime":"2021-11-13T22:53:32.020Z","isRelevant":true},{"internal_node_id":"0.0-0.0-3.0-0.35","rt":1767,"response":"1","trial_type":"image-keyboard-response","stimulus":"https://d3vowlh1lzbs4j.cloudfront.net/pat/plastic_rooster2.jpg","time_elapsed":106082,"isRecall":true,"trial_index":37,"pic":"plastic_rooster2.jpg","type":"Lure","userId":"524d2272-d17f-42aa-b335-772a7ac10972","dateTime":"2021-11-13T22:53:33.788Z","isRelevant":true},{"internal_node_id":"0.0-0.0-3.0-0.36","rt":1718,"response":"4","trial_type":"image-keyboard-response","stimulus":"https://d3vowlh1lzbs4j.cloudfront.net/pat/comb2.jpg","time_elapsed":107801,"isRecall":true,"trial_index":38,"pic":"comb2.jpg","type":"Lure","userId":"524d2272-d17f-42aa-b335-772a7ac10972","dateTime":"2021-11-13T22:53:35.507Z","isRelevant":true},{"internal_node_id":"0.0-0.0-3.0-0.37","rt":2342,"response":"1","trial_type":"image-keyboard-response","stimulus":"https://d3vowlh1lzbs4j.cloudfront.net/pat/comb1.jpg","time_elapsed":110146,"isRecall":true,"trial_index":39,"pic":"comb1.jpg","type":"Target","userId":"524d2272-d17f-42aa-b335-772a7ac10972","dateTime":"2021-11-13T22:53:37.852Z","isRelevant":true},{"internal_node_id":"0.0-0.0-3.0-0.38","rt":1520,"response":"1","trial_type":"image-keyboard-response","stimulus":"https://d3vowlh1lzbs4j.cloudfront.net/pat/menorah1.jpg","time_elapsed":111666,"isRecall":true,"trial_index":40,"pic":"menorah1.jpg","type":"Target","userId":"524d2272-d17f-42aa-b335-772a7ac10972","dateTime":"2021-11-13T22:53:39.372Z","isRelevant":true},{"internal_node_id":"0.0-0.0-3.0-0.39","rt":8543,"response":"3","trial_type":"image-keyboard-response","stimulus":"https://d3vowlh1lzbs4j.cloudfront.net/pat/Canoe_2.jpg","time_elapsed":120210,"isRecall":true,"trial_index":41,"pic":"Canoe_2.jpg","type":"Lure","userId":"524d2272-d17f-42aa-b335-772a7ac10972","dateTime":"2021-11-13T22:53:47.916Z","isRelevant":true},{"internal_node_id":"0.0-0.0-3.0-0.40","rt":1502,"response":"1","trial_type":"image-keyboard-response","stimulus":"https://d3vowlh1lzbs4j.cloudfront.net/pat/dreidel1.jpg","time_elapsed":121713,"isRecall":true,"trial_index":42,"pic":"dreidel1.jpg","type":"Target","userId":"524d2272-d17f-42aa-b335-772a7ac10972","dateTime":"2021-11-13T22:53:49.419Z","isRelevant":true},{"internal_node_id":"0.0-0.0-3.0-0.41","rt":1446,"response":"1","trial_type":"image-keyboard-response","stimulus":"https://d3vowlh1lzbs4j.cloudfront.net/pat/Canoe_1.jpg","time_elapsed":123162,"isRecall":true,"trial_index":43,"pic":"Canoe_1.jpg","type":"Target","userId":"524d2272-d17f-42aa-b335-772a7ac10972","dateTime":"2021-11-13T22:53:50.868Z","isRelevant":true},{"internal_node_id":"0.0-0.0-3.0-0.42","rt":1278,"response":"1","trial_type":"image-keyboard-response","stimulus":"https://d3vowlh1lzbs4j.cloudfront.net/pat/cookie_stir1.jpg","time_elapsed":124442,"isRecall":true,"trial_index":44,"pic":"cookie_stir1.jpg","type":"Target","userId":"524d2272-d17f-42aa-b335-772a7ac10972","dateTime":"2021-11-13T22:53:52.148Z","isRelevant":true},{"internal_node_id":"0.0-0.0-3.0-0.43","rt":1023,"response":"1","trial_type":"image-keyboard-response","stimulus":"https://d3vowlh1lzbs4j.cloudfront.net/pat/chapstick1.jpg","time_elapsed":125466,"isRecall":true,"trial_index":45,"pic":"chapstick1.jpg","type":"Target","userId":"524d2272-d17f-42aa-b335-772a7ac10972","dateTime":"2021-11-13T22:53:53.172Z","isRelevant":true},{"internal_node_id":"0.0-0.0-3.0-0.44","rt":871,"response":"1","trial_type":"image-keyboard-response","stimulus":"https://d3vowlh1lzbs4j.cloudfront.net/pat/altoids1.jpg","time_elapsed":126338,"isRecall":true,"trial_index":46,"pic":"altoids1.jpg","type":"Target","userId":"524d2272-d17f-42aa-b335-772a7ac10972","dateTime":"2021-11-13T22:53:54.044Z","isRelevant":true},{"internal_node_id":"0.0-0.0-3.0-0.45","rt":1231,"response":"1","trial_type":"image-keyboard-response","stimulus":"https://d3vowlh1lzbs4j.cloudfront.net/pat/Broom_2.jpg","time_elapsed":127570,"isRecall":true,"trial_index":47,"pic":"Broom_2.jpg","type":"Lure","userId":"524d2272-d17f-42aa-b335-772a7ac10972","dateTime":"2021-11-13T22:53:55.276Z","isRelevant":true},{"internal_node_id":"0.0-0.0-3.0-0.46","rt":919,"response":"1","trial_type":"image-keyboard-response","stimulus":"https://d3vowlh1lzbs4j.cloudfront.net/pat/seahorse1.jpg","time_elapsed":128490,"isRecall":true,"trial_index":48,"pic":"seahorse1.jpg","type":"Target","userId":"524d2272-d17f-42aa-b335-772a7ac10972","dateTime":"2021-11-13T22:53:56.196Z","isRelevant":true},{"internal_node_id":"0.0-0.0-3.0-0.47","rt":1222,"response":"4","trial_type":"image-keyboard-response","stimulus":"https://d3vowlh1lzbs4j.cloudfront.net/pat/tire_truck1.jpg","time_elapsed":129714,"isRecall":true,"trial_index":49,"pic":"tire_truck1.jpg","type":"New","userId":"524d2272-d17f-42aa-b335-772a7ac10972","dateTime":"2021-11-13T22:53:57.420Z","isRelevant":true},{"internal_node_id":"0.0-0.0-3.0-0.48","rt":1327,"response":"4","trial_type":"image-keyboard-response","stimulus":"https://d3vowlh1lzbs4j.cloudfront.net/pat/stacked_chairs2.jpg","time_elapsed":131042,"isRecall":true,"trial_index":50,"pic":"stacked_chairs2.jpg","type":"Lure","userId":"524d2272-d17f-42aa-b335-772a7ac10972","dateTime":"2021-11-13T22:53:58.748Z","isRelevant":true},{"internal_node_id":"0.0-0.0-3.0-0.49","rt":3206,"response":"2","trial_type":"image-keyboard-response","stimulus":"https://d3vowlh1lzbs4j.cloudfront.net/pat/clothes_iron1.jpg","time_elapsed":134250,"isRecall":true,"trial_index":51,"pic":"clothes_iron1.jpg","type":"Target","userId":"524d2272-d17f-42aa-b335-772a7ac10972","dateTime":"2021-11-13T22:54:01.956Z","isRelevant":true},{"internal_node_id":"0.0-0.0-3.0-0.50","rt":1151,"response":"4","trial_type":"image-keyboard-response","stimulus":"https://d3vowlh1lzbs4j.cloudfront.net/pat/tiger1.jpg","time_elapsed":135402,"isRecall":true,"trial_index":52,"pic":"tiger1.jpg","type":"New","userId":"524d2272-d17f-42aa-b335-772a7ac10972","dateTime":"2021-11-13T22:54:03.108Z","isRelevant":true},{"internal_node_id":"0.0-0.0-3.0-0.51","rt":3399,"response":"4","trial_type":"image-keyboard-response","stimulus":"https://d3vowlh1lzbs4j.cloudfront.net/pat/present_box1.jpg","time_elapsed":138802,"isRecall":true,"trial_index":53,"pic":"present_box1.jpg","type":"Target","userId":"524d2272-d17f-42aa-b335-772a7ac10972","dateTime":"2021-11-13T22:54:06.509Z","isRelevant":true},{"internal_node_id":"0.0-0.0-3.0-0.52","rt":5542,"response":"2","trial_type":"image-keyboard-response","stimulus":"https://d3vowlh1lzbs4j.cloudfront.net/pat/present_box2.jpg","time_elapsed":144347,"isRecall":true,"trial_index":54,"pic":"present_box2.jpg","type":"Lure","userId":"524d2272-d17f-42aa-b335-772a7ac10972","dateTime":"2021-11-13T22:54:12.053Z","isRelevant":true},{"internal_node_id":"0.0-0.0-3.0-0.53","rt":1391,"response":"4","trial_type":"image-keyboard-response","stimulus":"https://d3vowlh1lzbs4j.cloudfront.net/pat/hatbox2.jpg","time_elapsed":145738,"isRecall":true,"trial_index":55,"pic":"hatbox2.jpg","type":"Lure","userId":"524d2272-d17f-42aa-b335-772a7ac10972","dateTime":"2021-11-13T22:54:13.445Z","isRelevant":true},{"internal_node_id":"0.0-0.0-3.0-0.54","rt":1230,"response":"4","trial_type":"image-keyboard-response","stimulus":"https://d3vowlh1lzbs4j.cloudfront.net/pat/tent1.jpg","time_elapsed":146970,"isRecall":true,"trial_index":56,"pic":"tent1.jpg","type":"New","userId":"524d2272-d17f-42aa-b335-772a7ac10972","dateTime":"2021-11-13T22:54:14.677Z","isRelevant":true},{"internal_node_id":"0.0-0.0-3.0-0.55","rt":1991,"response":"2","trial_type":"image-keyboard-response","stimulus":"https://d3vowlh1lzbs4j.cloudfront.net/pat/babywalker_1.jpg","time_elapsed":148962,"isRecall":true,"trial_index":57,"pic":"babywalker_1.jpg","type":"Target","userId":"524d2272-d17f-42aa-b335-772a7ac10972","dateTime":"2021-11-13T22:54:16.668Z","isRelevant":true},{"internal_node_id":"0.0-0.0-3.0-0.56","rt":3254,"response":"2","trial_type":"image-keyboard-response","stimulus":"https://d3vowlh1lzbs4j.cloudfront.net/pat/flash_light1.jpg","time_elapsed":152219,"isRecall":true,"trial_index":58,"pic":"flash_light1.jpg","type":"Target","userId":"524d2272-d17f-42aa-b335-772a7ac10972","dateTime":"2021-11-13T22:54:19.925Z","isRelevant":true},{"internal_node_id":"0.0-0.0-3.0-0.57","rt":3015,"response":"1","trial_type":"image-keyboard-response","stimulus":"https://d3vowlh1lzbs4j.cloudfront.net/pat/duct_tape1.jpg","time_elapsed":155235,"isRecall":true,"trial_index":59,"pic":"duct_tape1.jpg","type":"Target","userId":"524d2272-d17f-42aa-b335-772a7ac10972","dateTime":"2021-11-13T22:54:22.941Z","isRelevant":true},{"internal_node_id":"0.0-0.0-3.0-0.58","rt":1408,"response":"4","trial_type":"image-keyboard-response","stimulus":"https://d3vowlh1lzbs4j.cloudfront.net/pat/BlowDryer_2.jpg","time_elapsed":156643,"isRecall":true,"trial_index":60,"pic":"BlowDryer_2.jpg","type":"Lure","userId":"524d2272-d17f-42aa-b335-772a7ac10972","dateTime":"2021-11-13T22:54:24.349Z","isRelevant":true},{"internal_node_id":"0.0-0.0-3.0-0.59","rt":2167,"response":"4","trial_type":"image-keyboard-response","stimulus":"https://d3vowlh1lzbs4j.cloudfront.net/pat/gold_fishy1.jpg","time_elapsed":158811,"isRecall":true,"trial_index":61,"pic":"gold_fishy1.jpg","type":"Target","userId":"524d2272-d17f-42aa-b335-772a7ac10972","dateTime":"2021-11-13T22:54:26.517Z","isRelevant":true},{"internal_node_id":"0.0-0.0-3.0-0.60","rt":1134,"response":"4","trial_type":"image-keyboard-response","stimulus":"https://d3vowlh1lzbs4j.cloudfront.net/pat/tin_object1.jpg","time_elapsed":159947,"isRecall":true,"trial_index":62,"pic":"tin_object1.jpg","type":"New","userId":"524d2272-d17f-42aa-b335-772a7ac10972","dateTime":"2021-11-13T22:54:27.653Z","isRelevant":true},{"internal_node_id":"0.0-0.0-3.0-0.61","rt":2110,"response":"1","trial_type":"image-keyboard-response","stimulus":"https://d3vowlh1lzbs4j.cloudfront.net/pat/plastic_rooster1.jpg","time_elapsed":162059,"isRecall":true,"trial_index":63,"pic":"plastic_rooster1.jpg","type":"Target","userId":"524d2272-d17f-42aa-b335-772a7ac10972","dateTime":"2021-11-13T22:54:29.766Z","isRelevant":true},{"internal_node_id":"0.0-0.0-3.0-0.62","rt":1191,"response":"1","trial_type":"image-keyboard-response","stimulus":"https://d3vowlh1lzbs4j.cloudfront.net/pat/Markers_1.jpg","time_elapsed":163251,"isRecall":true,"trial_index":64,"pic":"Markers_1.jpg","type":"Target","userId":"524d2272-d17f-42aa-b335-772a7ac10972","dateTime":"2021-11-13T22:54:30.957Z","isRelevant":true},{"internal_node_id":"0.0-0.0-3.0-0.63","rt":2447,"response":"2","trial_type":"image-keyboard-response","stimulus":"https://d3vowlh1lzbs4j.cloudfront.net/pat/Jeans_2.jpg","time_elapsed":165699,"isRecall":true,"trial_index":65,"pic":"Jeans_2.jpg","type":"Lure","userId":"524d2272-d17f-42aa-b335-772a7ac10972","dateTime":"2021-11-13T22:54:33.405Z","isRelevant":true},{"internal_node_id":"0.0-0.0-3.0-0.64","rt":1295,"response":"4","trial_type":"image-keyboard-response","stimulus":"https://d3vowlh1lzbs4j.cloudfront.net/pat/duct_tape2.jpg","time_elapsed":166995,"isRecall":true,"trial_index":66,"pic":"duct_tape2.jpg","type":"Lure","userId":"524d2272-d17f-42aa-b335-772a7ac10972","dateTime":"2021-11-13T22:54:34.701Z","isRelevant":true},{"internal_node_id":"0.0-0.0-3.0-0.65","rt":1215,"response":"1","trial_type":"image-keyboard-response","stimulus":"https://d3vowlh1lzbs4j.cloudfront.net/pat/BlowDryer_1.jpg","time_elapsed":168211,"isRecall":true,"trial_index":67,"pic":"BlowDryer_1.jpg","type":"Target","userId":"524d2272-d17f-42aa-b335-772a7ac10972","dateTime":"2021-11-13T22:54:35.917Z","isRelevant":true},{"ua":"Mozilla/5.0 (Macintosh; Intel Mac OS X 10.15; rv:94.0) Gecko/20100101 Firefox/94.0","userId":"524d2272-d17f-42aa-b335-772a7ac10972","dateTime":"2021-11-13T22:54:35.918Z","isRelevant":false},{"taskStarted":true,"userId":"524d2272-d17f-42aa-b335-772a7ac10972","dateTime":"2021-11-17T05:39:40.819Z","isRelevant":false},{"internal_node_id":"0.0-0.0-1.0","success":true,"trial_type":"preload","failed_images":[],"time_elapsed":350,"trial_index":0,"failed_audio":[],"failed_video":[],"timeout":false,"userId":"524d2272-d17f-42aa-b335-772a7ac10972","dateTime":"2021-11-17T05:39:41.169Z","isRelevant":false},{"internal_node_id":"0.0-0.0-2.0","rt":6965,"response":" ","trial_type":"html-keyboard-response","stimulus":"<h2>Pattern Separation Task</h2> <p> You will be tested on your memory for the objects you saw earlier. Please indicate whether each item is 1 = definitely old, 2 = maybe old, 3 = maybe new, or 4 = definitely new. “Definitely old” means you are confident that you saw the object. “Maybe old” means that you think you saw the object, but not completely sure.   ”Maybe new” means that you don’t think you saw the object, but not completely sure. “Definitely new” means you are confident that you did not see the object. </p> <em>Press the space bar to continue</em> ","time_elapsed":7318,"trial_index":1,"userId":"524d2272-d17f-42aa-b335-772a7ac10972","dateTime":"2021-11-17T05:39:48.137Z","isRelevant":false},{"internal_node_id":"0.0-0.0-3.0-0.0","rt":2790,"response":"4","trial_type":"image-keyboard-response","stimulus":"https://d3vowlh1lzbs4j.cloudfront.net/pat/coffee_grinder2.jpg","time_elapsed":10109,"isRecall":true,"trial_index":2,"pic":"coffee_grinder2.jpg","type":"Lure","userId":"524d2272-d17f-42aa-b335-772a7ac10972","dateTime":"2021-11-17T05:39:50.928Z","isRelevant":true},{"internal_node_id":"0.0-0.0-3.0-0.1","rt":6143,"response":"2","trial_type":"image-keyboard-response","stimulus":"https://d3vowlh1lzbs4j.cloudfront.net/pat/gold_watch1.jpg","time_elapsed":16255,"isRecall":true,"trial_index":3,"pic":"gold_watch1.jpg","type":"Target","userId":"524d2272-d17f-42aa-b335-772a7ac10972","dateTime":"2021-11-17T05:39:57.074Z","isRelevant":true},{"internal_node_id":"0.0-0.0-3.0-0.2","rt":1742,"response":"1","trial_type":"image-keyboard-response","stimulus":"https://d3vowlh1lzbs4j.cloudfront.net/pat/carton1.jpg","time_elapsed":17997,"isRecall":true,"trial_index":4,"pic":"carton1.jpg","type":"Target","userId":"524d2272-d17f-42aa-b335-772a7ac10972","dateTime":"2021-11-17T05:39:58.816Z","isRelevant":true},{"internal_node_id":"0.0-0.0-3.0-0.3","rt":2374,"response":"1","trial_type":"image-keyboard-response","stimulus":"https://d3vowlh1lzbs4j.cloudfront.net/pat/scanner1.jpg","time_elapsed":20374,"isRecall":true,"trial_index":5,"pic":"scanner1.jpg","type":"Target","userId":"524d2272-d17f-42aa-b335-772a7ac10972","dateTime":"2021-11-17T05:40:01.193Z","isRelevant":true},{"internal_node_id":"0.0-0.0-3.0-0.4","rt":1173,"response":"1","trial_type":"image-keyboard-response","stimulus":"https://d3vowlh1lzbs4j.cloudfront.net/pat/cowboy_boot1.jpg","time_elapsed":21550,"isRecall":true,"trial_index":6,"pic":"cowboy_boot1.jpg","type":"Target","userId":"524d2272-d17f-42aa-b335-772a7ac10972","dateTime":"2021-11-17T05:40:02.369Z","isRelevant":true},{"internal_node_id":"0.0-0.0-3.0-0.5","rt":966,"response":"1","trial_type":"image-keyboard-response","stimulus":"https://d3vowlh1lzbs4j.cloudfront.net/pat/baby_stroller1.jpg","time_elapsed":22518,"isRecall":true,"trial_index":7,"pic":"baby_stroller1.jpg","type":"Target","userId":"524d2272-d17f-42aa-b335-772a7ac10972","dateTime":"2021-11-17T05:40:03.337Z","isRelevant":true},{"internal_node_id":"0.0-0.0-3.0-0.6","rt":1495,"response":"4","trial_type":"image-keyboard-response","stimulus":"https://d3vowlh1lzbs4j.cloudfront.net/pat/toy_barn1.jpg","time_elapsed":24014,"isRecall":true,"trial_index":8,"pic":"toy_barn1.jpg","type":"New","userId":"524d2272-d17f-42aa-b335-772a7ac10972","dateTime":"2021-11-17T05:40:04.833Z","isRelevant":true},{"internal_node_id":"0.0-0.0-3.0-0.7","rt":1767,"response":"4","trial_type":"image-keyboard-response","stimulus":"https://d3vowlh1lzbs4j.cloudfront.net/pat/accordian1.jpg","time_elapsed":25782,"isRecall":true,"trial_index":9,"pic":"accordian1.jpg","type":"Target","userId":"524d2272-d17f-42aa-b335-772a7ac10972","dateTime":"2021-11-17T05:40:06.601Z","isRelevant":true},{"internal_node_id":"0.0-0.0-3.0-0.8","rt":1270,"response":"4","trial_type":"image-keyboard-response","stimulus":"https://d3vowlh1lzbs4j.cloudfront.net/pat/comp_mouse2.jpg","time_elapsed":27054,"isRecall":true,"trial_index":10,"pic":"comp_mouse2.jpg","type":"Lure","userId":"524d2272-d17f-42aa-b335-772a7ac10972","dateTime":"2021-11-17T05:40:07.873Z","isRelevant":true},{"internal_node_id":"0.0-0.0-3.0-0.9","rt":1519,"response":"1","trial_type":"image-keyboard-response","stimulus":"https://d3vowlh1lzbs4j.cloudfront.net/pat/chowchow_dog1.jpg","time_elapsed":28574,"isRecall":true,"trial_index":11,"pic":"chowchow_dog1.jpg","type":"Target","userId":"524d2272-d17f-42aa-b335-772a7ac10972","dateTime":"2021-11-17T05:40:09.393Z","isRelevant":true},{"internal_node_id":"0.0-0.0-3.0-0.10","rt":2615,"response":"4","trial_type":"image-keyboard-response","stimulus":"https://d3vowlh1lzbs4j.cloudfront.net/pat/baby_stroller2.jpg","time_elapsed":31191,"isRecall":true,"trial_index":12,"pic":"baby_stroller2.jpg","type":"Lure","userId":"524d2272-d17f-42aa-b335-772a7ac10972","dateTime":"2021-11-17T05:40:12.010Z","isRelevant":true},{"internal_node_id":"0.0-0.0-3.0-0.11","rt":3254,"response":"2","trial_type":"image-keyboard-response","stimulus":"https://d3vowlh1lzbs4j.cloudfront.net/pat/life_jacket1.jpg","time_elapsed":34446,"isRecall":true,"trial_index":13,"pic":"life_jacket1.jpg","type":"Target","userId":"524d2272-d17f-42aa-b335-772a7ac10972","dateTime":"2021-11-17T05:40:15.265Z","isRelevant":true},{"internal_node_id":"0.0-0.0-3.0-0.12","rt":2014,"response":"2","trial_type":"image-keyboard-response","stimulus":"https://d3vowlh1lzbs4j.cloudfront.net/pat/firetruck_toy1.jpg","time_elapsed":36463,"isRecall":true,"trial_index":14,"pic":"firetruck_toy1.jpg","type":"Target","userId":"524d2272-d17f-42aa-b335-772a7ac10972","dateTime":"2021-11-17T05:40:17.282Z","isRelevant":true},{"internal_node_id":"0.0-0.0-3.0-0.13","rt":1167,"response":"1","trial_type":"image-keyboard-response","stimulus":"https://d3vowlh1lzbs4j.cloudfront.net/pat/comp_mouse1.jpg","time_elapsed":37631,"isRecall":true,"trial_index":15,"pic":"comp_mouse1.jpg","type":"Target","userId":"524d2272-d17f-42aa-b335-772a7ac10972","dateTime":"2021-11-17T05:40:18.450Z","isRelevant":true},{"internal_node_id":"0.0-0.0-3.0-0.14","rt":1430,"response":"1","trial_type":"image-keyboard-response","stimulus":"https://d3vowlh1lzbs4j.cloudfront.net/pat/Bell_1.jpg","time_elapsed":39062,"isRecall":true,"trial_index":16,"pic":"Bell_1.jpg","type":"Target","userId":"524d2272-d17f-42aa-b335-772a7ac10972","dateTime":"2021-11-17T05:40:19.881Z","isRelevant":true},{"internal_node_id":"0.0-0.0-3.0-0.15","rt":1511,"response":"1","trial_type":"image-keyboard-response","stimulus":"https://d3vowlh1lzbs4j.cloudfront.net/pat/desk_phone1.jpg","time_elapsed":40575,"isRecall":true,"trial_index":17,"pic":"desk_phone1.jpg","type":"Target","userId":"524d2272-d17f-42aa-b335-772a7ac10972","dateTime":"2021-11-17T05:40:21.394Z","isRelevant":true},{"internal_node_id":"0.0-0.0-3.0-0.16","rt":1182,"response":"4","trial_type":"image-keyboard-response","stimulus":"https://d3vowlh1lzbs4j.cloudfront.net/pat/desk_phone2.jpg","time_elapsed":41758,"isRecall":true,"trial_index":18,"pic":"desk_phone2.jpg","type":"Lure","userId":"524d2272-d17f-42aa-b335-772a7ac10972","dateTime":"2021-11-17T05:40:22.577Z","isRelevant":true},{"internal_node_id":"0.0-0.0-3.0-0.17","rt":3527,"response":"1","trial_type":"image-keyboard-response","stimulus":"https://d3vowlh1lzbs4j.cloudfront.net/pat/oil_barrel2.jpg","time_elapsed":45286,"isRecall":true,"trial_index":19,"pic":"oil_barrel2.jpg","type":"Lure","userId":"524d2272-d17f-42aa-b335-772a7ac10972","dateTime":"2021-11-17T05:40:26.105Z","isRelevant":true},{"internal_node_id":"0.0-0.0-3.0-0.18","rt":1031,"response":"1","trial_type":"image-keyboard-response","stimulus":"https://d3vowlh1lzbs4j.cloudfront.net/pat/highlighter_pink1.jpg","time_elapsed":46318,"isRecall":true,"trial_index":20,"pic":"highlighter_pink1.jpg","type":"Target","userId":"524d2272-d17f-42aa-b335-772a7ac10972","dateTime":"2021-11-17T05:40:27.138Z","isRelevant":true},{"internal_node_id":"0.0-0.0-3.0-0.19","rt":2134,"response":"4","trial_type":"image-keyboard-response","stimulus":"https://d3vowlh1lzbs4j.cloudfront.net/pat/accordian2.jpg","time_elapsed":48454,"isRecall":true,"trial_index":21,"pic":"accordian2.jpg","type":"Lure","userId":"524d2272-d17f-42aa-b335-772a7ac10972","dateTime":"2021-11-17T05:40:29.274Z","isRelevant":true},{"internal_node_id":"0.0-0.0-3.0-0.20","rt":1422,"response":"1","trial_type":"image-keyboard-response","stimulus":"https://d3vowlh1lzbs4j.cloudfront.net/pat/patio_table1.jpg","time_elapsed":49879,"isRecall":true,"trial_index":22,"pic":"patio_table1.jpg","type":"Target","userId":"524d2272-d17f-42aa-b335-772a7ac10972","dateTime":"2021-11-17T05:40:30.698Z","isRelevant":true},{"internal_node_id":"0.0-0.0-3.0-0.21","rt":1118,"response":"1","trial_type":"image-keyboard-response","stimulus":"https://d3vowlh1lzbs4j.cloudfront.net/pat/really_green_jacket1.jpg","time_elapsed":50998,"isRecall":true,"trial_index":23,"pic":"really_green_jacket1.jpg","type":"Target","userId":"524d2272-d17f-42aa-b335-772a7ac10972","dateTime":"2021-11-17T05:40:31.817Z","isRelevant":true},{"internal_node_id":"0.0-0.0-3.0-0.22","rt":1272,"response":"4","trial_type":"image-keyboard-response","stimulus":"https://d3vowlh1lzbs4j.cloudfront.net/pat/highlighter_pink2.jpg","time_elapsed":52271,"isRecall":true,"trial_index":24,"pic":"highlighter_pink2.jpg","type":"Lure","userId":"524d2272-d17f-42aa-b335-772a7ac10972","dateTime":"2021-11-17T05:40:33.090Z","isRelevant":true},{"internal_node_id":"0.0-0.0-3.0-0.23","rt":1302,"response":"1","trial_type":"image-keyboard-response","stimulus":"https://d3vowlh1lzbs4j.cloudfront.net/pat/plate_teacup1.jpg","time_elapsed":53574,"isRecall":true,"trial_index":25,"pic":"plate_teacup1.jpg","type":"Target","userId":"524d2272-d17f-42aa-b335-772a7ac10972","dateTime":"2021-11-17T05:40:34.393Z","isRelevant":true},{"internal_node_id":"0.0-0.0-3.0-0.24","rt":2703,"response":"1","trial_type":"image-keyboard-response","stimulus":"https://d3vowlh1lzbs4j.cloudfront.net/pat/cowboy_boot2.jpg","time_elapsed":56279,"isRecall":true,"trial_index":26,"pic":"cowboy_boot2.jpg","type":"Lure","userId":"524d2272-d17f-42aa-b335-772a7ac10972","dateTime":"2021-11-17T05:40:37.098Z","isRelevant":true},{"internal_node_id":"0.0-0.0-3.0-0.25","rt":2166,"response":"1","trial_type":"image-keyboard-response","stimulus":"https://d3vowlh1lzbs4j.cloudfront.net/pat/foam_toys1.jpg","time_elapsed":58448,"isRecall":true,"trial_index":27,"pic":"foam_toys1.jpg","type":"Target","userId":"524d2272-d17f-42aa-b335-772a7ac10972","dateTime":"2021-11-17T05:40:39.267Z","isRelevant":true},{"internal_node_id":"0.0-0.0-3.0-0.26","rt":1343,"response":"4","trial_type":"image-keyboard-response","stimulus":"https://d3vowlh1lzbs4j.cloudfront.net/pat/cactus2.jpg","time_elapsed":59791,"isRecall":true,"trial_index":28,"pic":"cactus2.jpg","type":"New","userId":"524d2272-d17f-42aa-b335-772a7ac10972","dateTime":"2021-11-17T05:40:40.610Z","isRelevant":true},{"internal_node_id":"0.0-0.0-3.0-0.27","rt":5040,"response":"2","trial_type":"image-keyboard-response","stimulus":"https://d3vowlh1lzbs4j.cloudfront.net/pat/firetruck_toy2.jpg","time_elapsed":64831,"isRecall":true,"trial_index":29,"pic":"firetruck_toy2.jpg","type":"Lure","userId":"524d2272-d17f-42aa-b335-772a7ac10972","dateTime":"2021-11-17T05:40:45.650Z","isRelevant":true},{"internal_node_id":"0.0-0.0-3.0-0.28","rt":2055,"response":"1","trial_type":"image-keyboard-response","stimulus":"https://d3vowlh1lzbs4j.cloudfront.net/pat/brown_towel1.jpg","time_elapsed":66888,"isRecall":true,"trial_index":30,"pic":"brown_towel1.jpg","type":"Target","userId":"524d2272-d17f-42aa-b335-772a7ac10972","dateTime":"2021-11-17T05:40:47.707Z","isRelevant":true},{"internal_node_id":"0.0-0.0-3.0-0.29","rt":1038,"response":"1","trial_type":"image-keyboard-response","stimulus":"https://d3vowlh1lzbs4j.cloudfront.net/pat/elem_scissors1.jpg","time_elapsed":67927,"isRecall":true,"trial_index":31,"pic":"elem_scissors1.jpg","type":"Target","userId":"524d2272-d17f-42aa-b335-772a7ac10972","dateTime":"2021-11-17T05:40:48.746Z","isRelevant":true},{"internal_node_id":"0.0-0.0-3.0-0.30","rt":1247,"response":"4","trial_type":"image-keyboard-response","stimulus":"https://d3vowlh1lzbs4j.cloudfront.net/pat/antique_phone2.jpg","time_elapsed":69175,"isRecall":true,"trial_index":32,"pic":"antique_phone2.jpg","type":"Lure","userId":"524d2272-d17f-42aa-b335-772a7ac10972","dateTime":"2021-11-17T05:40:49.994Z","isRelevant":true},{"internal_node_id":"0.0-0.0-3.0-0.31","rt":1183,"response":"4","trial_type":"image-keyboard-response","stimulus":"https://d3vowlh1lzbs4j.cloudfront.net/pat/Purse_1.jpg","time_elapsed":70359,"isRecall":true,"trial_index":33,"pic":"Purse_1.jpg","type":"New","userId":"524d2272-d17f-42aa-b335-772a7ac10972","dateTime":"2021-11-17T05:40:51.178Z","isRelevant":true},{"internal_node_id":"0.0-0.0-3.0-0.32","rt":1671,"response":"1","trial_type":"image-keyboard-response","stimulus":"https://d3vowlh1lzbs4j.cloudfront.net/pat/box_cookies1.jpg","time_elapsed":72031,"isRecall":true,"trial_index":34,"pic":"box_cookies1.jpg","type":"Target","userId":"524d2272-d17f-42aa-b335-772a7ac10972","dateTime":"2021-11-17T05:40:52.851Z","isRelevant":true},{"internal_node_id":"0.0-0.0-3.0-0.33","rt":1206,"response":"4","trial_type":"image-keyboard-response","stimulus":"https://d3vowlh1lzbs4j.cloudfront.net/pat/superman1.jpg","time_elapsed":73239,"isRecall":true,"trial_index":35,"pic":"superman1.jpg","type":"New","userId":"524d2272-d17f-42aa-b335-772a7ac10972","dateTime":"2021-11-17T05:40:54.058Z","isRelevant":true},{"internal_node_id":"0.0-0.0-3.0-0.34","rt":2751,"response":"2","trial_type":"image-keyboard-response","stimulus":"https://d3vowlh1lzbs4j.cloudfront.net/pat/really_green_jacket2.jpg","time_elapsed":75992,"isRecall":true,"trial_index":36,"pic":"really_green_jacket2.jpg","type":"Lure","userId":"524d2272-d17f-42aa-b335-772a7ac10972","dateTime":"2021-11-17T05:40:56.811Z","isRelevant":true},{"internal_node_id":"0.0-0.0-3.0-0.35","rt":1295,"response":"4","trial_type":"image-keyboard-response","stimulus":"https://d3vowlh1lzbs4j.cloudfront.net/pat/dishes2.jpg","time_elapsed":77288,"isRecall":true,"trial_index":37,"pic":"dishes2.jpg","type":"Lure","userId":"524d2272-d17f-42aa-b335-772a7ac10972","dateTime":"2021-11-17T05:40:58.107Z","isRelevant":true},{"internal_node_id":"0.0-0.0-3.0-0.36","rt":1384,"response":"1","trial_type":"image-keyboard-response","stimulus":"https://d3vowlh1lzbs4j.cloudfront.net/pat/drum2.jpg","time_elapsed":78672,"isRecall":true,"trial_index":38,"pic":"drum2.jpg","type":"Lure","userId":"524d2272-d17f-42aa-b335-772a7ac10972","dateTime":"2021-11-17T05:40:59.491Z","isRelevant":true},{"internal_node_id":"0.0-0.0-3.0-0.37","rt":2166,"response":"1","trial_type":"image-keyboard-response","stimulus":"https://d3vowlh1lzbs4j.cloudfront.net/pat/antique_phone1.jpg","time_elapsed":80840,"isRecall":true,"trial_index":39,"pic":"antique_phone1.jpg","type":"Target","userId":"524d2272-d17f-42aa-b335-772a7ac10972","dateTime":"2021-11-17T05:41:01.659Z","isRelevant":true},{"internal_node_id":"0.0-0.0-3.0-0.38","rt":1662,"response":"4","trial_type":"image-keyboard-response","stimulus":"https://d3vowlh1lzbs4j.cloudfront.net/pat/blue_gloves2.jpg","time_elapsed":82504,"isRecall":true,"trial_index":40,"pic":"blue_gloves2.jpg","type":"Lure","userId":"524d2272-d17f-42aa-b335-772a7ac10972","dateTime":"2021-11-17T05:41:03.323Z","isRelevant":true},{"internal_node_id":"0.0-0.0-3.0-0.39","rt":1519,"response":"4","trial_type":"image-keyboard-response","stimulus":"https://d3vowlh1lzbs4j.cloudfront.net/pat/life_jacket2.jpg","time_elapsed":84024,"isRecall":true,"trial_index":41,"pic":"life_jacket2.jpg","type":"Lure","userId":"524d2272-d17f-42aa-b335-772a7ac10972","dateTime":"2021-11-17T05:41:04.843Z","isRelevant":true},{"internal_node_id":"0.0-0.0-3.0-0.40","rt":1014,"response":"4","trial_type":"image-keyboard-response","stimulus":"https://d3vowlh1lzbs4j.cloudfront.net/pat/toy_alligator1.jpg","time_elapsed":85039,"isRecall":true,"trial_index":42,"pic":"toy_alligator1.jpg","type":"New","userId":"524d2272-d17f-42aa-b335-772a7ac10972","dateTime":"2021-11-17T05:41:05.859Z","isRelevant":true},{"internal_node_id":"0.0-0.0-3.0-0.41","rt":2262,"response":"1","trial_type":"image-keyboard-response","stimulus":"https://d3vowlh1lzbs4j.cloudfront.net/pat/coffee_grinder1.jpg","time_elapsed":87304,"isRecall":true,"trial_index":43,"pic":"coffee_grinder1.jpg","type":"Target","userId":"524d2272-d17f-42aa-b335-772a7ac10972","dateTime":"2021-11-17T05:41:08.123Z","isRelevant":true},{"internal_node_id":"0.0-0.0-3.0-0.42","rt":2566,"response":"1","trial_type":"image-keyboard-response","stimulus":"https://d3vowlh1lzbs4j.cloudfront.net/pat/metronome2.jpg","time_elapsed":89872,"isRecall":true,"trial_index":44,"pic":"metronome2.jpg","type":"Lure","userId":"524d2272-d17f-42aa-b335-772a7ac10972","dateTime":"2021-11-17T05:41:10.691Z","isRelevant":true},{"internal_node_id":"0.0-0.0-3.0-0.43","rt":1224,"response":"4","trial_type":"image-keyboard-response","stimulus":"https://d3vowlh1lzbs4j.cloudfront.net/pat/carton2.jpg","time_elapsed":91096,"isRecall":true,"trial_index":45,"pic":"carton2.jpg","type":"Lure","userId":"524d2272-d17f-42aa-b335-772a7ac10972","dateTime":"2021-11-17T05:41:11.915Z","isRelevant":true},{"internal_node_id":"0.0-0.0-3.0-0.44","rt":2366,"response":"4","trial_type":"image-keyboard-response","stimulus":"https://d3vowlh1lzbs4j.cloudfront.net/pat/scanner2.jpg","time_elapsed":93464,"isRecall":true,"trial_index":46,"pic":"scanner2.jpg","type":"Lure","userId":"524d2272-d17f-42aa-b335-772a7ac10972","dateTime":"2021-11-17T05:41:14.283Z","isRelevant":true},{"internal_node_id":"0.0-0.0-3.0-0.45","rt":1734,"response":"4","trial_type":"image-keyboard-response","stimulus":"https://d3vowlh1lzbs4j.cloudfront.net/pat/skull_alligator2.jpg","time_elapsed":95200,"isRecall":true,"trial_index":47,"pic":"skull_alligator2.jpg","type":"Lure","userId":"524d2272-d17f-42aa-b335-772a7ac10972","dateTime":"2021-11-17T05:41:16.019Z","isRelevant":true},{"internal_node_id":"0.0-0.0-3.0-0.46","rt":2358,"response":"3","trial_type":"image-keyboard-response","stimulus":"https://d3vowlh1lzbs4j.cloudfront.net/pat/kermitthefrog2.jpg","time_elapsed":97560,"isRecall":true,"trial_index":48,"pic":"kermitthefrog2.jpg","type":"Lure","userId":"524d2272-d17f-42aa-b335-772a7ac10972","dateTime":"2021-11-17T05:41:18.379Z","isRelevant":true},{"internal_node_id":"0.0-0.0-3.0-0.47","rt":1670,"response":"1","trial_type":"image-keyboard-response","stimulus":"https://d3vowlh1lzbs4j.cloudfront.net/pat/kermitthefrog1.jpg","time_elapsed":99232,"isRecall":true,"trial_index":49,"pic":"kermitthefrog1.jpg","type":"Target","userId":"524d2272-d17f-42aa-b335-772a7ac10972","dateTime":"2021-11-17T05:41:20.051Z","isRelevant":true},{"internal_node_id":"0.0-0.0-3.0-0.48","rt":1558,"response":"4","trial_type":"image-keyboard-response","stimulus":"https://d3vowlh1lzbs4j.cloudfront.net/pat/chowchow_dog2.jpg","time_elapsed":100792,"isRecall":true,"trial_index":50,"pic":"chowchow_dog2.jpg","type":"Lure","userId":"524d2272-d17f-42aa-b335-772a7ac10972","dateTime":"2021-11-17T05:41:21.611Z","isRelevant":true},{"internal_node_id":"0.0-0.0-3.0-0.49","rt":2327,"response":"3","trial_type":"image-keyboard-response","stimulus":"https://d3vowlh1lzbs4j.cloudfront.net/pat/oil_barrel1.jpg","time_elapsed":103120,"isRecall":true,"trial_index":51,"pic":"oil_barrel1.jpg","type":"Target","userId":"524d2272-d17f-42aa-b335-772a7ac10972","dateTime":"2021-11-17T05:41:23.939Z","isRelevant":true},{"internal_node_id":"0.0-0.0-3.0-0.50","rt":1359,"response":"1","trial_type":"image-keyboard-response","stimulus":"https://d3vowlh1lzbs4j.cloudfront.net/pat/skull_alligator1.jpg","time_elapsed":104480,"isRecall":true,"trial_index":52,"pic":"skull_alligator1.jpg","type":"Target","userId":"524d2272-d17f-42aa-b335-772a7ac10972","dateTime":"2021-11-17T05:41:25.299Z","isRelevant":true},{"internal_node_id":"0.0-0.0-3.0-0.51","rt":1102,"response":"4","trial_type":"image-keyboard-response","stimulus":"https://d3vowlh1lzbs4j.cloudfront.net/pat/elem_scissors2.jpg","time_elapsed":105584,"isRecall":true,"trial_index":53,"pic":"elem_scissors2.jpg","type":"Lure","userId":"524d2272-d17f-42aa-b335-772a7ac10972","dateTime":"2021-11-17T05:41:26.403Z","isRelevant":true},{"internal_node_id":"0.0-0.0-3.0-0.52","rt":2000,"response":"2","trial_type":"image-keyboard-response","stimulus":"https://d3vowlh1lzbs4j.cloudfront.net/pat/cable_divide2.jpg","time_elapsed":107584,"isRecall":true,"trial_index":54,"pic":"cable_divide2.jpg","type":"Lure","userId":"524d2272-d17f-42aa-b335-772a7ac10972","dateTime":"2021-11-17T05:41:28.403Z","isRelevant":true},{"internal_node_id":"0.0-0.0-3.0-0.53","rt":1534,"response":"4","trial_type":"image-keyboard-response","stimulus":"https://d3vowlh1lzbs4j.cloudfront.net/pat/brown_towel2.jpg","time_elapsed":109120,"isRecall":true,"trial_index":55,"pic":"brown_towel2.jpg","type":"Lure","userId":"524d2272-d17f-42aa-b335-772a7ac10972","dateTime":"2021-11-17T05:41:29.939Z","isRelevant":true},{"internal_node_id":"0.0-0.0-3.0-0.54","rt":3942,"response":"1","trial_type":"image-keyboard-response","stimulus":"https://d3vowlh1lzbs4j.cloudfront.net/pat/blue_gloves1.jpg","time_elapsed":113064,"isRecall":true,"trial_index":56,"pic":"blue_gloves1.jpg","type":"Target","userId":"524d2272-d17f-42aa-b335-772a7ac10972","dateTime":"2021-11-17T05:41:33.883Z","isRelevant":true},{"internal_node_id":"0.0-0.0-3.0-0.55","rt":2056,"response":"4","trial_type":"image-keyboard-response","stimulus":"https://d3vowlh1lzbs4j.cloudfront.net/pat/drum1.jpg","time_elapsed":115121,"isRecall":true,"trial_index":57,"pic":"drum1.jpg","type":"Target","userId":"524d2272-d17f-42aa-b335-772a7ac10972","dateTime":"2021-11-17T05:41:35.940Z","isRelevant":true},{"internal_node_id":"0.0-0.0-3.0-0.56","rt":1342,"response":"4","trial_type":"image-keyboard-response","stimulus":"https://d3vowlh1lzbs4j.cloudfront.net/pat/box_cookies2.jpg","time_elapsed":116465,"isRecall":true,"trial_index":58,"pic":"box_cookies2.jpg","type":"Lure","userId":"524d2272-d17f-42aa-b335-772a7ac10972","dateTime":"2021-11-17T05:41:37.284Z","isRelevant":true},{"internal_node_id":"0.0-0.0-3.0-0.57","rt":2086,"response":"2","trial_type":"image-keyboard-response","stimulus":"https://d3vowlh1lzbs4j.cloudfront.net/pat/dishes1.jpg","time_elapsed":118552,"isRecall":true,"trial_index":59,"pic":"dishes1.jpg","type":"Target","userId":"524d2272-d17f-42aa-b335-772a7ac10972","dateTime":"2021-11-17T05:41:39.371Z","isRelevant":true},{"internal_node_id":"0.0-0.0-3.0-0.58","rt":4390,"response":"3","trial_type":"image-keyboard-response","stimulus":"https://d3vowlh1lzbs4j.cloudfront.net/pat/metronome1.jpg","time_elapsed":122945,"isRecall":true,"trial_index":60,"pic":"metronome1.jpg","type":"Target","userId":"524d2272-d17f-42aa-b335-772a7ac10972","dateTime":"2021-11-17T05:41:43.764Z","isRelevant":true},{"internal_node_id":"0.0-0.0-3.0-0.59","rt":5526,"response":"3","trial_type":"image-keyboard-response","stimulus":"https://d3vowlh1lzbs4j.cloudfront.net/pat/plate_teacup2.jpg","time_elapsed":128473,"isRecall":true,"trial_index":61,"pic":"plate_teacup2.jpg","type":"Lure","userId":"524d2272-d17f-42aa-b335-772a7ac10972","dateTime":"2021-11-17T05:41:49.292Z","isRelevant":true},{"internal_node_id":"0.0-0.0-3.0-0.60","rt":1600,"response":"3","trial_type":"image-keyboard-response","stimulus":"https://d3vowlh1lzbs4j.cloudfront.net/pat/Bell_2.jpg","time_elapsed":130073,"isRecall":true,"trial_index":62,"pic":"Bell_2.jpg","type":"Lure","userId":"524d2272-d17f-42aa-b335-772a7ac10972","dateTime":"2021-11-17T05:41:50.892Z","isRelevant":true},{"internal_node_id":"0.0-0.0-3.0-0.61","rt":2287,"response":"2","trial_type":"image-keyboard-response","stimulus":"https://d3vowlh1lzbs4j.cloudfront.net/pat/cable_divide1.jpg","time_elapsed":132361,"isRecall":true,"trial_index":63,"pic":"cable_divide1.jpg","type":"Target","userId":"524d2272-d17f-42aa-b335-772a7ac10972","dateTime":"2021-11-17T05:41:53.180Z","isRelevant":true},{"internal_node_id":"0.0-0.0-3.0-0.62","rt":1190,"response":"4","trial_type":"image-keyboard-response","stimulus":"https://d3vowlh1lzbs4j.cloudfront.net/pat/patio_table2.jpg","time_elapsed":133553,"isRecall":true,"trial_index":64,"pic":"patio_table2.jpg","type":"Lure","userId":"524d2272-d17f-42aa-b335-772a7ac10972","dateTime":"2021-11-17T05:41:54.372Z","isRelevant":true},{"internal_node_id":"0.0-0.0-3.0-0.63","rt":1023,"response":"4","trial_type":"image-keyboard-response","stimulus":"https://d3vowlh1lzbs4j.cloudfront.net/pat/toilet1.jpg","time_elapsed":134577,"isRecall":true,"trial_index":65,"pic":"toilet1.jpg","type":"New","userId":"524d2272-d17f-42aa-b335-772a7ac10972","dateTime":"2021-11-17T05:41:55.396Z","isRelevant":true},{"internal_node_id":"0.0-0.0-3.0-0.64","rt":1006,"response":"4","trial_type":"image-keyboard-response","stimulus":"https://d3vowlh1lzbs4j.cloudfront.net/pat/gold_watch2.jpg","time_elapsed":135585,"isRecall":true,"trial_index":66,"pic":"gold_watch2.jpg","type":"Lure","userId":"524d2272-d17f-42aa-b335-772a7ac10972","dateTime":"2021-11-17T05:41:56.405Z","isRelevant":true},{"internal_node_id":"0.0-0.0-3.0-0.65","rt":1271,"response":"4","trial_type":"image-keyboard-response","stimulus":"https://d3vowlh1lzbs4j.cloudfront.net/pat/foam_toys2.jpg","time_elapsed":136857,"isRecall":true,"trial_index":67,"pic":"foam_toys2.jpg","type":"Lure","userId":"524d2272-d17f-42aa-b335-772a7ac10972","dateTime":"2021-11-17T05:41:57.676Z","isRelevant":true},{"ua":"Mozilla/5.0 (Macintosh; Intel Mac OS X 10.15; rv:94.0) Gecko/20100101 Firefox/94.0","userId":"524d2272-d17f-42aa-b335-772a7ac10972","dateTime":"2021-11-17T05:41:57.677Z","isRelevant":false},{"taskStarted":true,"userId":"118a2724-6420-41e6-af9f-42da893ea092","dateTime":"2021-11-09T18:09:36.549Z","isRelevant":false},{"internal_node_id":"0.0-0.0-1.0","success":true,"trial_type":"preload","failed_images":[],"time_elapsed":238,"trial_index":0,"failed_audio":[],"failed_video":[],"timeout":false,"userId":"118a2724-6420-41e6-af9f-42da893ea092","dateTime":"2021-11-09T18:09:36.787Z","isRelevant":false},{"internal_node_id":"0.0-0.0-2.0","rt":1849.3999999761581,"response":" ","trial_type":"html-keyboard-response","stimulus":"<h2>Pattern Separation Task</h2> <p> You will be tested on your memory for the objects you saw earlier. Please indicate whether each item is 1 = definitely old, 2 = maybe old, 3 = maybe new, or 4 = definitely new. “Definitely old” means you are confident that you saw the object. “Maybe old” means that you think you saw the object, but not completely sure.   ”Maybe new” means that you don’t think you saw the object, but not completely sure. “Definitely new” means you are confident that you did not see the object. </p> <em>Press the space bar to continue</em> ","time_elapsed":2091,"trial_index":1,"userId":"118a2724-6420-41e6-af9f-42da893ea092","dateTime":"2021-11-09T18:09:38.641Z","isRelevant":false},{"internal_node_id":"0.0-0.0-3.0-0.0","rt":2515.5,"response":"2","trial_type":"image-keyboard-response","stimulus":"https://d3vowlh1lzbs4j.cloudfront.net/pat/computer_keys1.jpg","time_elapsed":4612,"isRecall":true,"trial_index":2,"pic":"computer_keys1.jpg","type":"Target","userId":"118a2724-6420-41e6-af9f-42da893ea092","dateTime":"2021-11-09T18:09:41.162Z","isRelevant":true},{"internal_node_id":"0.0-0.0-3.0-0.1","rt":1052,"response":"1","trial_type":"image-keyboard-response","stimulus":"https://d3vowlh1lzbs4j.cloudfront.net/pat/hockey_stick1.jpg","time_elapsed":5669,"isRecall":true,"trial_index":3,"pic":"hockey_stick1.jpg","type":"Target","userId":"118a2724-6420-41e6-af9f-42da893ea092","dateTime":"2021-11-09T18:09:42.219Z","isRelevant":true},{"internal_node_id":"0.0-0.0-3.0-0.2","rt":1484.2000000178814,"response":"3","trial_type":"image-keyboard-response","stimulus":"https://d3vowlh1lzbs4j.cloudfront.net/pat/golf_bag1.jpg","time_elapsed":7158,"isRecall":true,"trial_index":4,"pic":"golf_bag1.jpg","type":"Target","userId":"118a2724-6420-41e6-af9f-42da893ea092","dateTime":"2021-11-09T18:09:43.708Z","isRelevant":true},{"internal_node_id":"0.0-0.0-3.0-0.3","rt":1404,"response":"2","trial_type":"image-keyboard-response","stimulus":"https://d3vowlh1lzbs4j.cloudfront.net/pat/coffee_maker1.jpg","time_elapsed":8566,"isRecall":true,"trial_index":5,"pic":"coffee_maker1.jpg","type":"Target","userId":"118a2724-6420-41e6-af9f-42da893ea092","dateTime":"2021-11-09T18:09:45.116Z","isRelevant":true},{"internal_node_id":"0.0-0.0-3.0-0.4","rt":1768.2999999821186,"response":"2","trial_type":"image-keyboard-response","stimulus":"https://d3vowlh1lzbs4j.cloudfront.net/pat/arrow_target1.jpg","time_elapsed":10339,"isRecall":true,"trial_index":6,"pic":"arrow_target1.jpg","type":"Target","userId":"118a2724-6420-41e6-af9f-42da893ea092","dateTime":"2021-11-09T18:09:46.889Z","isRelevant":true},{"internal_node_id":"0.0-0.0-3.0-0.5","rt":1607.7999999821186,"response":"4","trial_type":"image-keyboard-response","stimulus":"https://d3vowlh1lzbs4j.cloudfront.net/pat/book_objects2.jpg","time_elapsed":11953,"isRecall":true,"trial_index":7,"pic":"book_objects2.jpg","type":"Lure","userId":"118a2724-6420-41e6-af9f-42da893ea092","dateTime":"2021-11-09T18:09:48.502Z","isRelevant":true},{"internal_node_id":"0.0-0.0-3.0-0.6","rt":1680.800000011921,"response":"3","trial_type":"image-keyboard-response","stimulus":"https://d3vowlh1lzbs4j.cloudfront.net/pat/bulldozer2.jpg","time_elapsed":13640,"isRecall":true,"trial_index":8,"pic":"bulldozer2.jpg","type":"Lure","userId":"118a2724-6420-41e6-af9f-42da893ea092","dateTime":"2021-11-09T18:09:50.190Z","isRelevant":true},{"internal_node_id":"0.0-0.0-3.0-0.7","rt":1028.300000011921,"response":"1","trial_type":"image-keyboard-response","stimulus":"https://d3vowlh1lzbs4j.cloudfront.net/pat/golf_bag2.jpg","time_elapsed":14672,"isRecall":true,"trial_index":9,"pic":"golf_bag2.jpg","type":"Lure","userId":"118a2724-6420-41e6-af9f-42da893ea092","dateTime":"2021-11-09T18:09:51.222Z","isRelevant":true},{"internal_node_id":"0.0-0.0-3.0-0.8","rt":1129.4000000059605,"response":"4","trial_type":"image-keyboard-response","stimulus":"https://d3vowlh1lzbs4j.cloudfront.net/pat/swingset1.jpg","time_elapsed":15806,"isRecall":true,"trial_index":10,"pic":"swingset1.jpg","type":"New","userId":"118a2724-6420-41e6-af9f-42da893ea092","dateTime":"2021-11-09T18:09:52.355Z","isRelevant":true},{"internal_node_id":"0.0-0.0-3.0-0.9","rt":1156.5,"response":"1","trial_type":"image-keyboard-response","stimulus":"https://d3vowlh1lzbs4j.cloudfront.net/pat/caterpillar2.jpg","time_elapsed":16967,"isRecall":true,"trial_index":11,"pic":"caterpillar2.jpg","type":"Lure","userId":"118a2724-6420-41e6-af9f-42da893ea092","dateTime":"2021-11-09T18:09:53.517Z","isRelevant":true},{"internal_node_id":"0.0-0.0-3.0-0.10","rt":1611.4000000059605,"response":"3","trial_type":"image-keyboard-response","stimulus":"https://d3vowlh1lzbs4j.cloudfront.net/pat/school_bag2.jpg","time_elapsed":18583,"isRecall":true,"trial_index":12,"pic":"school_bag2.jpg","type":"Lure","userId":"118a2724-6420-41e6-af9f-42da893ea092","dateTime":"2021-11-09T18:09:55.133Z","isRelevant":true},{"internal_node_id":"0.0-0.0-3.0-0.11","rt":964.4000000059605,"response":"1","trial_type":"image-keyboard-response","stimulus":"https://d3vowlh1lzbs4j.cloudfront.net/pat/old_alarmclock1.jpg","time_elapsed":19552,"isRecall":true,"trial_index":13,"pic":"old_alarmclock1.jpg","type":"Target","userId":"118a2724-6420-41e6-af9f-42da893ea092","dateTime":"2021-11-09T18:09:56.101Z","isRelevant":true},{"internal_node_id":"0.0-0.0-3.0-0.12","rt":1127.9000000059605,"response":"4","trial_type":"image-keyboard-response","stimulus":"https://d3vowlh1lzbs4j.cloudfront.net/pat/stop_and_go1.jpg","time_elapsed":20683,"isRecall":true,"trial_index":14,"pic":"stop_and_go1.jpg","type":"New","userId":"118a2724-6420-41e6-af9f-42da893ea092","dateTime":"2021-11-09T18:09:57.233Z","isRelevant":true},{"internal_node_id":"0.0-0.0-3.0-0.13","rt":977.5,"response":"1","trial_type":"image-keyboard-response","stimulus":"https://d3vowlh1lzbs4j.cloudfront.net/pat/Lipstick_1.jpg","time_elapsed":21665,"isRecall":true,"trial_index":15,"pic":"Lipstick_1.jpg","type":"Target","userId":"118a2724-6420-41e6-af9f-42da893ea092","dateTime":"2021-11-09T18:09:58.215Z","isRelevant":true},{"internal_node_id":"0.0-0.0-3.0-0.14","rt":1275.4000000059605,"response":"3","trial_type":"image-keyboard-response","stimulus":"https://d3vowlh1lzbs4j.cloudfront.net/pat/hockey_stick2.jpg","time_elapsed":22944,"isRecall":true,"trial_index":16,"pic":"hockey_stick2.jpg","type":"Lure","userId":"118a2724-6420-41e6-af9f-42da893ea092","dateTime":"2021-11-09T18:09:59.494Z","isRelevant":true},{"internal_node_id":"0.0-0.0-3.0-0.15","rt":1001.0999999940395,"response":"3","trial_type":"image-keyboard-response","stimulus":"https://d3vowlh1lzbs4j.cloudfront.net/pat/sunglasses_1.jpg","time_elapsed":23950,"isRecall":true,"trial_index":17,"pic":"sunglasses_1.jpg","type":"New","userId":"118a2724-6420-41e6-af9f-42da893ea092","dateTime":"2021-11-09T18:10:00.499Z","isRelevant":true},{"internal_node_id":"0.0-0.0-3.0-0.16","rt":1857.300000011921,"response":"1","trial_type":"image-keyboard-response","stimulus":"https://d3vowlh1lzbs4j.cloudfront.net/pat/america_flag1.jpg","time_elapsed":25811,"isRecall":true,"trial_index":18,"pic":"america_flag1.jpg","type":"Target","userId":"118a2724-6420-41e6-af9f-42da893ea092","dateTime":"2021-11-09T18:10:02.361Z","isRelevant":true},{"internal_node_id":"0.0-0.0-3.0-0.17","rt":957.1999999880791,"response":"4","trial_type":"image-keyboard-response","stimulus":"https://d3vowlh1lzbs4j.cloudfront.net/pat/stroller_aqua1.jpg","time_elapsed":26773,"isRecall":true,"trial_index":19,"pic":"stroller_aqua1.jpg","type":"New","userId":"118a2724-6420-41e6-af9f-42da893ea092","dateTime":"2021-11-09T18:10:03.322Z","isRelevant":true},{"internal_node_id":"0.0-0.0-3.0-0.18","rt":837.5,"response":"4","trial_type":"image-keyboard-response","stimulus":"https://d3vowlh1lzbs4j.cloudfront.net/pat/Lipstick_2.jpg","time_elapsed":27615,"isRecall":true,"trial_index":20,"pic":"Lipstick_2.jpg","type":"Lure","userId":"118a2724-6420-41e6-af9f-42da893ea092","dateTime":"2021-11-09T18:10:04.164Z","isRelevant":true},{"internal_node_id":"0.0-0.0-3.0-0.19","rt":1913.699999988079,"response":"2","trial_type":"image-keyboard-response","stimulus":"https://d3vowlh1lzbs4j.cloudfront.net/pat/snare_drum1.jpg","time_elapsed":29532,"isRecall":true,"trial_index":21,"pic":"snare_drum1.jpg","type":"Target","userId":"118a2724-6420-41e6-af9f-42da893ea092","dateTime":"2021-11-09T18:10:06.082Z","isRelevant":true},{"internal_node_id":"0.0-0.0-3.0-0.20","rt":852.1999999880791,"response":"1","trial_type":"image-keyboard-response","stimulus":"https://d3vowlh1lzbs4j.cloudfront.net/pat/school_bag1.jpg","time_elapsed":30389,"isRecall":true,"trial_index":22,"pic":"school_bag1.jpg","type":"Target","userId":"118a2724-6420-41e6-af9f-42da893ea092","dateTime":"2021-11-09T18:10:06.939Z","isRelevant":true},{"internal_node_id":"0.0-0.0-3.0-0.21","rt":1122.9000000059605,"response":"2","trial_type":"image-keyboard-response","stimulus":"https://d3vowlh1lzbs4j.cloudfront.net/pat/domino1.jpg","time_elapsed":31516,"isRecall":true,"trial_index":23,"pic":"domino1.jpg","type":"Target","userId":"118a2724-6420-41e6-af9f-42da893ea092","dateTime":"2021-11-09T18:10:08.065Z","isRelevant":true},{"internal_node_id":"0.0-0.0-3.0-0.22","rt":1290.300000011921,"response":"4","trial_type":"image-keyboard-response","stimulus":"https://d3vowlh1lzbs4j.cloudfront.net/pat/sweater1.jpg","time_elapsed":32808,"isRecall":true,"trial_index":24,"pic":"sweater1.jpg","type":"New","userId":"118a2724-6420-41e6-af9f-42da893ea092","dateTime":"2021-11-09T18:10:09.358Z","isRelevant":true},{"internal_node_id":"0.0-0.0-3.0-0.23","rt":990.5999999940395,"response":"4","trial_type":"image-keyboard-response","stimulus":"https://d3vowlh1lzbs4j.cloudfront.net/pat/pen_green2.jpg","time_elapsed":33803,"isRecall":true,"trial_index":25,"pic":"pen_green2.jpg","type":"Lure","userId":"118a2724-6420-41e6-af9f-42da893ea092","dateTime":"2021-11-09T18:10:10.353Z","isRelevant":true},{"internal_node_id":"0.0-0.0-3.0-0.24","rt":966.5999999940395,"response":"4","trial_type":"image-keyboard-response","stimulus":"https://d3vowlh1lzbs4j.cloudfront.net/pat/chutes_and_ladders2.jpg","time_elapsed":34774,"isRecall":true,"trial_index":26,"pic":"chutes_and_ladders2.jpg","type":"Lure","userId":"118a2724-6420-41e6-af9f-42da893ea092","dateTime":"2021-11-09T18:10:11.324Z","isRelevant":true},{"internal_node_id":"0.0-0.0-3.0-0.25","rt":736.9000000059605,"response":"1","trial_type":"image-keyboard-response","stimulus":"https://d3vowlh1lzbs4j.cloudfront.net/pat/football2.jpg","time_elapsed":35516,"isRecall":true,"trial_index":27,"pic":"football2.jpg","type":"Lure","userId":"118a2724-6420-41e6-af9f-42da893ea092","dateTime":"2021-11-09T18:10:12.066Z","isRelevant":true},{"internal_node_id":"0.0-0.0-3.0-0.26","rt":1529.4000000059605,"response":"3","trial_type":"image-keyboard-response","stimulus":"https://d3vowlh1lzbs4j.cloudfront.net/pat/baby_toy2.jpg","time_elapsed":37050,"isRecall":true,"trial_index":28,"pic":"baby_toy2.jpg","type":"Lure","userId":"118a2724-6420-41e6-af9f-42da893ea092","dateTime":"2021-11-09T18:10:13.600Z","isRelevant":true},{"internal_node_id":"0.0-0.0-3.0-0.27","rt":1204.5,"response":"4","trial_type":"image-keyboard-response","stimulus":"https://d3vowlh1lzbs4j.cloudfront.net/pat/old_alarmclock2.jpg","time_elapsed":38259,"isRecall":true,"trial_index":29,"pic":"old_alarmclock2.jpg","type":"Lure","userId":"118a2724-6420-41e6-af9f-42da893ea092","dateTime":"2021-11-09T18:10:14.809Z","isRelevant":true},{"internal_node_id":"0.0-0.0-3.0-0.28","rt":1755.199999988079,"response":"3","trial_type":"image-keyboard-response","stimulus":"https://d3vowlh1lzbs4j.cloudfront.net/pat/key_chain2.jpg","time_elapsed":40019,"isRecall":true,"trial_index":30,"pic":"key_chain2.jpg","type":"Lure","userId":"118a2724-6420-41e6-af9f-42da893ea092","dateTime":"2021-11-09T18:10:16.568Z","isRelevant":true},{"internal_node_id":"0.0-0.0-3.0-0.29","rt":1101.199999988079,"response":"1","trial_type":"image-keyboard-response","stimulus":"https://d3vowlh1lzbs4j.cloudfront.net/pat/baby_toy1.jpg","time_elapsed":41123,"isRecall":true,"trial_index":31,"pic":"baby_toy1.jpg","type":"Target","userId":"118a2724-6420-41e6-af9f-42da893ea092","dateTime":"2021-11-09T18:10:17.673Z","isRelevant":true},{"internal_node_id":"0.0-0.0-3.0-0.30","rt":850,"response":"1","trial_type":"image-keyboard-response","stimulus":"https://d3vowlh1lzbs4j.cloudfront.net/pat/caterpillar1.jpg","time_elapsed":41979,"isRecall":true,"trial_index":32,"pic":"caterpillar1.jpg","type":"Target","userId":"118a2724-6420-41e6-af9f-42da893ea092","dateTime":"2021-11-09T18:10:18.529Z","isRelevant":true},{"internal_node_id":"0.0-0.0-3.0-0.31","rt":1388.0999999940395,"response":"1","trial_type":"image-keyboard-response","stimulus":"https://d3vowlh1lzbs4j.cloudfront.net/pat/camcorder_2.jpg","time_elapsed":43371,"isRecall":true,"trial_index":33,"pic":"camcorder_2.jpg","type":"Lure","userId":"118a2724-6420-41e6-af9f-42da893ea092","dateTime":"2021-11-09T18:10:19.920Z","isRelevant":true},{"internal_node_id":"0.0-0.0-3.0-0.32","rt":1114.5,"response":"3","trial_type":"image-keyboard-response","stimulus":"https://d3vowlh1lzbs4j.cloudfront.net/pat/america_flag2.jpg","time_elapsed":44488,"isRecall":true,"trial_index":34,"pic":"america_flag2.jpg","type":"Lure","userId":"118a2724-6420-41e6-af9f-42da893ea092","dateTime":"2021-11-09T18:10:21.037Z","isRelevant":true},{"internal_node_id":"0.0-0.0-3.0-0.33","rt":867.2999999821186,"response":"3","trial_type":"image-keyboard-response","stimulus":"https://d3vowlh1lzbs4j.cloudfront.net/pat/arrow_target2.jpg","time_elapsed":45359,"isRecall":true,"trial_index":35,"pic":"arrow_target2.jpg","type":"Lure","userId":"118a2724-6420-41e6-af9f-42da893ea092","dateTime":"2021-11-09T18:10:21.909Z","isRelevant":true},{"internal_node_id":"0.0-0.0-3.0-0.34","rt":1025.9000000059605,"response":"1","trial_type":"image-keyboard-response","stimulus":"https://d3vowlh1lzbs4j.cloudfront.net/pat/microwave_old2.jpg","time_elapsed":46389,"isRecall":true,"trial_index":36,"pic":"microwave_old2.jpg","type":"Lure","userId":"118a2724-6420-41e6-af9f-42da893ea092","dateTime":"2021-11-09T18:10:22.939Z","isRelevant":true},{"internal_node_id":"0.0-0.0-3.0-0.35","rt":1701.4000000059605,"response":"4","trial_type":"image-keyboard-response","stimulus":"https://d3vowlh1lzbs4j.cloudfront.net/pat/snare_drum2.jpg","time_elapsed":48097,"isRecall":true,"trial_index":37,"pic":"snare_drum2.jpg","type":"Lure","userId":"118a2724-6420-41e6-af9f-42da893ea092","dateTime":"2021-11-09T18:10:24.646Z","isRelevant":true},{"internal_node_id":"0.0-0.0-3.0-0.36","rt":1051.699999988079,"response":"1","trial_type":"image-keyboard-response","stimulus":"https://d3vowlh1lzbs4j.cloudfront.net/pat/first_place1.jpg","time_elapsed":49151,"isRecall":true,"trial_index":38,"pic":"first_place1.jpg","type":"Target","userId":"118a2724-6420-41e6-af9f-42da893ea092","dateTime":"2021-11-09T18:10:25.700Z","isRelevant":true},{"internal_node_id":"0.0-0.0-3.0-0.37","rt":809.8000000119209,"response":"1","trial_type":"image-keyboard-response","stimulus":"https://d3vowlh1lzbs4j.cloudfront.net/pat/book_objects1.jpg","time_elapsed":49962,"isRecall":true,"trial_index":39,"pic":"book_objects1.jpg","type":"Target","userId":"118a2724-6420-41e6-af9f-42da893ea092","dateTime":"2021-11-09T18:10:26.512Z","isRelevant":true},{"internal_node_id":"0.0-0.0-3.0-0.38","rt":825.8000000119209,"response":"4","trial_type":"image-keyboard-response","stimulus":"https://d3vowlh1lzbs4j.cloudfront.net/pat/wetsuit1.jpg","time_elapsed":50792,"isRecall":true,"trial_index":40,"pic":"wetsuit1.jpg","type":"New","userId":"118a2724-6420-41e6-af9f-42da893ea092","dateTime":"2021-11-09T18:10:27.342Z","isRelevant":true},{"internal_node_id":"0.0-0.0-3.0-0.39","rt":953.4000000059605,"response":"4","trial_type":"image-keyboard-response","stimulus":"https://d3vowlh1lzbs4j.cloudfront.net/pat/coffee_maker2.jpg","time_elapsed":51750,"isRecall":true,"trial_index":41,"pic":"coffee_maker2.jpg","type":"Lure","userId":"118a2724-6420-41e6-af9f-42da893ea092","dateTime":"2021-11-09T18:10:28.300Z","isRelevant":true},{"internal_node_id":"0.0-0.0-3.0-0.40","rt":1060.5,"response":"4","trial_type":"image-keyboard-response","stimulus":"https://d3vowlh1lzbs4j.cloudfront.net/pat/first_place2.jpg","time_elapsed":52815,"isRecall":true,"trial_index":42,"pic":"first_place2.jpg","type":"Lure","userId":"118a2724-6420-41e6-af9f-42da893ea092","dateTime":"2021-11-09T18:10:29.365Z","isRelevant":true},{"internal_node_id":"0.0-0.0-3.0-0.41","rt":1142.1000000238419,"response":"1","trial_type":"image-keyboard-response","stimulus":"https://d3vowlh1lzbs4j.cloudfront.net/pat/bulldozer1.jpg","time_elapsed":53961,"isRecall":true,"trial_index":43,"pic":"bulldozer1.jpg","type":"Target","userId":"118a2724-6420-41e6-af9f-42da893ea092","dateTime":"2021-11-09T18:10:30.511Z","isRelevant":true},{"internal_node_id":"0.0-0.0-3.0-0.42","rt":1378.0999999940395,"response":"2","trial_type":"image-keyboard-response","stimulus":"https://d3vowlh1lzbs4j.cloudfront.net/pat/red_box1.jpg","time_elapsed":55345,"isRecall":true,"trial_index":44,"pic":"red_box1.jpg","type":"Target","userId":"118a2724-6420-41e6-af9f-42da893ea092","dateTime":"2021-11-09T18:10:31.895Z","isRelevant":true},{"internal_node_id":"0.0-0.0-3.0-0.43","rt":1227.9000000059605,"response":"3","trial_type":"image-keyboard-response","stimulus":"https://d3vowlh1lzbs4j.cloudfront.net/pat/belt2.jpg","time_elapsed":56577,"isRecall":true,"trial_index":45,"pic":"belt2.jpg","type":"Lure","userId":"118a2724-6420-41e6-af9f-42da893ea092","dateTime":"2021-11-09T18:10:33.127Z","isRelevant":true},{"internal_node_id":"0.0-0.0-3.0-0.44","rt":1013.3999999761581,"response":"1","trial_type":"image-keyboard-response","stimulus":"https://d3vowlh1lzbs4j.cloudfront.net/pat/polar_bear1.jpg","time_elapsed":57595,"isRecall":true,"trial_index":46,"pic":"polar_bear1.jpg","type":"Target","userId":"118a2724-6420-41e6-af9f-42da893ea092","dateTime":"2021-11-09T18:10:34.144Z","isRelevant":true},{"internal_node_id":"0.0-0.0-3.0-0.45","rt":922.1999999880791,"response":"1","trial_type":"image-keyboard-response","stimulus":"https://d3vowlh1lzbs4j.cloudfront.net/pat/crayon2.jpg","time_elapsed":58522,"isRecall":true,"trial_index":47,"pic":"crayon2.jpg","type":"Lure","userId":"118a2724-6420-41e6-af9f-42da893ea092","dateTime":"2021-11-09T18:10:35.072Z","isRelevant":true},{"internal_node_id":"0.0-0.0-3.0-0.46","rt":1446.5999999940395,"response":"3","trial_type":"image-keyboard-response","stimulus":"https://d3vowlh1lzbs4j.cloudfront.net/pat/red_box2.jpg","time_elapsed":59973,"isRecall":true,"trial_index":48,"pic":"red_box2.jpg","type":"Lure","userId":"118a2724-6420-41e6-af9f-42da893ea092","dateTime":"2021-11-09T18:10:36.522Z","isRelevant":true},{"internal_node_id":"0.0-0.0-3.0-0.47","rt":668.4000000059605,"response":"1","trial_type":"image-keyboard-response","stimulus":"https://d3vowlh1lzbs4j.cloudfront.net/pat/pen_green1.jpg","time_elapsed":60646,"isRecall":true,"trial_index":49,"pic":"pen_green1.jpg","type":"Target","userId":"118a2724-6420-41e6-af9f-42da893ea092","dateTime":"2021-11-09T18:10:37.196Z","isRelevant":true},{"internal_node_id":"0.0-0.0-3.0-0.48","rt":747.3999999761581,"response":"1","trial_type":"image-keyboard-response","stimulus":"https://d3vowlh1lzbs4j.cloudfront.net/pat/microwave_old1.jpg","time_elapsed":61397,"isRecall":true,"trial_index":50,"pic":"microwave_old1.jpg","type":"Target","userId":"118a2724-6420-41e6-af9f-42da893ea092","dateTime":"2021-11-09T18:10:37.947Z","isRelevant":true},{"internal_node_id":"0.0-0.0-3.0-0.49","rt":1223.699999988079,"response":"3","trial_type":"image-keyboard-response","stimulus":"https://d3vowlh1lzbs4j.cloudfront.net/pat/crayon1.jpg","time_elapsed":62625,"isRecall":true,"trial_index":51,"pic":"crayon1.jpg","type":"Target","userId":"118a2724-6420-41e6-af9f-42da893ea092","dateTime":"2021-11-09T18:10:39.174Z","isRelevant":true},{"internal_node_id":"0.0-0.0-3.0-0.50","rt":770.4000000059605,"response":"1","trial_type":"image-keyboard-response","stimulus":"https://d3vowlh1lzbs4j.cloudfront.net/pat/chutes_and_ladders1.jpg","time_elapsed":63398,"isRecall":true,"trial_index":52,"pic":"chutes_and_ladders1.jpg","type":"Target","userId":"118a2724-6420-41e6-af9f-42da893ea092","dateTime":"2021-11-09T18:10:39.947Z","isRelevant":true},{"internal_node_id":"0.0-0.0-3.0-0.51","rt":971.1999999880791,"response":"1","trial_type":"image-keyboard-response","stimulus":"https://d3vowlh1lzbs4j.cloudfront.net/pat/camcorder_1.jpg","time_elapsed":64373,"isRecall":true,"trial_index":53,"pic":"camcorder_1.jpg","type":"Target","userId":"118a2724-6420-41e6-af9f-42da893ea092","dateTime":"2021-11-09T18:10:40.923Z","isRelevant":true},{"internal_node_id":"0.0-0.0-3.0-0.52","rt":883.2999999821186,"response":"3","trial_type":"image-keyboard-response","stimulus":"https://d3vowlh1lzbs4j.cloudfront.net/pat/polar_bear2.jpg","time_elapsed":65260,"isRecall":true,"trial_index":54,"pic":"polar_bear2.jpg","type":"Lure","userId":"118a2724-6420-41e6-af9f-42da893ea092","dateTime":"2021-11-09T18:10:41.810Z","isRelevant":true},{"internal_node_id":"0.0-0.0-3.0-0.53","rt":1382.5999999940395,"response":"4","trial_type":"image-keyboard-response","stimulus":"https://d3vowlh1lzbs4j.cloudfront.net/pat/drumset2.jpg","time_elapsed":66647,"isRecall":true,"trial_index":55,"pic":"drumset2.jpg","type":"Lure","userId":"118a2724-6420-41e6-af9f-42da893ea092","dateTime":"2021-11-09T18:10:43.196Z","isRelevant":true},{"internal_node_id":"0.0-0.0-3.0-0.54","rt":822.3000000119209,"response":"4","trial_type":"image-keyboard-response","stimulus":"https://d3vowlh1lzbs4j.cloudfront.net/pat/euro502.jpg","time_elapsed":67474,"isRecall":true,"trial_index":56,"pic":"euro502.jpg","type":"Lure","userId":"118a2724-6420-41e6-af9f-42da893