[{"taskStarted":true,"dateTime":"2021-11-11T16:11:29.784Z","isRelevant":false},{"internal_node_id":"0.0-0.0-1.0","success":true,"trial_type":"preload","failed_images":[],"time_elapsed":365,"trial_index":0,"failed_audio":[],"failed_video":[],"timeout":false,"dateTime":"2021-11-11T16:11:30.149Z","isRelevant":false},{"internal_node_id":"0.0-0.0-2.0","rt":13957,"response":" ","trial_type":"html-keyboard-response","stimulus":"<h2>Pattern Separation Task</h2> <p> You are about to start a new task. In this task, you will be asked to view a series of common objects and remember them for a later memory test. While you view each item, please answer yes or no to the following questions: </p> Will the object fit inside a lady’s medium shoe box?<br/> Can you carry the object across the room using only your right hand?<br/> <p> Before we begin the actual task, let’s try a few practice trials. </p> <em>Press the space bar to continue</em>","time_elapsed":14323,"trial_index":1,"dateTime":"2021-11-11T16:11:44.107Z","isRelevant":false},{"internal_node_id":"0.0-0.0-3.0","rt":6502,"response":" ","trial_type":"html-keyboard-response","stimulus":"<h2>Pattern Separation Task</h2> <p> In the practice trials, you will see 4 items twice. Please answer the question presented underneath the item by pressing \"y\" for \"yes\" or \"n\" for \"no\" as well as trying to remember them for a later memory test. </p> <em>Press the space bar to continue</em> ","time_elapsed":20826,"trial_index":2,"dateTime":"2021-11-11T16:11:50.611Z","isRelevant":false},{"internal_node_id":"0.0-0.0-4.0-0.0","rt":null,"isLearning":true,"isPractice":true,"response":null,"trial_type":"image-keyboard-response","stimulus":"https://d3vowlh1lzbs4j.cloudfront.net/pat/violin1.jpg","time_elapsed":23335,"trial_index":3,"pic":"violin1.jpg","type":"Target","dateTime":"2021-11-11T16:11:53.119Z","isRelevant":true},{"internal_node_id":"0.0-0.0-4.0-1.0-0.0","rt":null,"response":null,"trial_type":"html-keyboard-response","stimulus":"Answer faster next time","time_elapsed":24139,"trial_index":4,"dateTime":"2021-11-11T16:11:53.923Z","isRelevant":false},{"internal_node_id":"0.0-0.0-4.0-0.1","rt":94,"isLearning":true,"isPractice":true,"response":"n","trial_type":"image-keyboard-response","stimulus":"https://d3vowlh1lzbs4j.cloudfront.net/pat/waffle_maker1.jpg","time_elapsed":26641,"trial_index":5,"pic":"waffle_maker1.jpg","type":"Target","dateTime":"2021-11-11T16:11:56.425Z","isRelevant":true},{"internal_node_id":"0.0-0.0-4.0-0.2","rt":1640,"isLearning":true,"isPractice":true,"response":"n","trial_type":"image-keyboard-response","stimulus":"https://d3vowlh1lzbs4j.cloudfront.net/pat/typewritter1.jpg","time_elapsed":29146,"trial_index":6,"pic":"typewritter1.jpg","type":"Target","dateTime":"2021-11-11T16:11:58.930Z","isRelevant":true},{"internal_node_id":"0.0-0.0-4.0-0.3","rt":1046,"isLearning":true,"isPractice":true,"response":"n","trial_type":"image-keyboard-response","stimulus":"https://d3vowlh1lzbs4j.cloudfront.net/pat/Wagon_1.jpg","time_elapsed":31649,"trial_index":7,"pic":"Wagon_1.jpg","type":"Target","dateTime":"2021-11-11T16:12:01.433Z","isRelevant":true},{"internal_node_id":"0.0-0.0-5.0-0.0","rt":1384,"isLearning":true,"isPractice":true,"response":"n","trial_type":"image-keyboard-response","stimulus":"https://d3vowlh1lzbs4j.cloudfront.net/pat/violin1.jpg","time_elapsed":34153,"trial_index":8,"pic":"violin1.jpg","type":"Target","dateTime":"2021-11-11T16:12:03.937Z","isRelevant":true},{"internal_node_id":"0.0-0.0-5.0-0.1","rt":1785,"isLearning":true,"isPractice":true,"response":"y","trial_type":"image-keyboard-response","stimulus":"https://d3vowlh1lzbs4j.cloudfront.net/pat/waffle_maker1.jpg","time_elapsed":36655,"trial_index":9,"pic":"waffle_maker1.jpg","type":"Target","dateTime":"2021-11-11T16:12:06.439Z","isRelevant":true},{"internal_node_id":"0.0-0.0-5.0-0.2","rt":1707,"isLearning":true,"isPractice":true,"response":"y","trial_type":"image-keyboard-response","stimulus":"https://d3vowlh1lzbs4j.cloudfront.net/pat/typewritter1.jpg","time_elapsed":39157,"trial_index":10,"pic":"typewritter1.jpg","type":"Target","dateTime":"2021-11-11T16:12:08.941Z","isRelevant":true},{"internal_node_id":"0.0-0.0-5.0-0.3","rt":2036,"isLearning":true,"isPractice":true,"response":"n","trial_type":"image-keyboard-response","stimulus":"https://d3vowlh1lzbs4j.cloudfront.net/pat/Wagon_1.jpg","time_elapsed":41659,"trial_index":11,"pic":"Wagon_1.jpg","type":"Target","dateTime":"2021-11-11T16:12:11.443Z","isRelevant":true},{"internal_node_id":"0.0-0.0-6.0","rt":14264,"response":" ","trial_type":"html-keyboard-response","stimulus":"<h2>Pattern Separation Task</h2> <p> You will be tested on your memory for the objects you saw earlier. Please indicate whether each item is 1 = definitely old, 2 = maybe old, 3 = maybe new, or 4 = definitely new. “Definitely old” means you are confident that you saw the object. “Maybe old” means that you think you saw the object, but not completely sure.   ”Maybe new” means that you don’t think you saw the object, but not completely sure. “Definitely new” means you are confident that you did not see the object. </p> <em>Press the space bar to continue</em> ","time_elapsed":55924,"trial_index":12,"dateTime":"2021-11-11T16:12:25.708Z","isRelevant":false},{"internal_node_id":"0.0-0.0-7.0-0.0","rt":3679,"isPractice":true,"response":"1","trial_type":"image-keyboard-response","stimulus":"https://d3vowlh1lzbs4j.cloudfront.net/pat/waffle_maker1.jpg","time_elapsed":59604,"isRecall":true,"trial_index":13,"pic":"waffle_maker1.jpg","type":"Target","dateTime":"2021-11-11T16:12:29.388Z","isRelevant":true},{"internal_node_id":"0.0-0.0-7.0-0.1","rt":1255,"isPractice":true,"response":"1","trial_type":"image-keyboard-response","stimulus":"https://d3vowlh1lzbs4j.cloudfront.net/pat/violin1.jpg","time_elapsed":60860,"isRecall":true,"trial_index":14,"pic":"violin1.jpg","type":"Target","dateTime":"2021-11-11T16:12:30.644Z","isRelevant":true},{"internal_node_id":"0.0-0.0-7.0-0.2","rt":2342,"isPractice":true,"response":"1","trial_type":"image-keyboard-response","stimulus":"https://d3vowlh1lzbs4j.cloudfront.net/pat/typewritter1.jpg","time_elapsed":63204,"isRecall":true,"trial_index":15,"pic":"typewritter1.jpg","type":"Target","dateTime":"2021-11-11T16:12:32.988Z","isRelevant":true},{"internal_node_id":"0.0-0.0-7.0-0.3","rt":1535,"isPractice":true,"response":"1","trial_type":"image-keyboard-response","stimulus":"https://d3vowlh1lzbs4j.cloudfront.net/pat/Wagon_1.jpg","time_elapsed":64740,"isRecall":true,"trial_index":16,"pic":"Wagon_1.jpg","type":"Target","dateTime":"2021-11-11T16:12:34.524Z","isRelevant":true},{"internal_node_id":"0.0-0.0-8.0","rt":15023,"response":" ","trial_type":"html-keyboard-response","stimulus":"<h2>Pattern Separation Task</h2> <p> We will begin the actual task. You will see 30 items. Please answer the question presented underneath the item as well as trying to remember them for a later memory test. Please note that the memory test will be given 30 minutes after this viewing session. </p> <em>Press the space bar to continue</em> ","time_elapsed":79765,"trial_index":17,"dateTime":"2021-11-11T16:12:49.549Z","isRelevant":false},{"internal_node_id":"0.0-0.0-9.0-0.0","rt":null,"isLearning":true,"response":null,"trial_type":"image-keyboard-response","stimulus":"https://d3vowlh1lzbs4j.cloudfront.net/pat/baby_toy1.jpg","time_elapsed":82271,"trial_index":18,"pic":"baby_toy1.jpg","type":"Target","dateTime":"2021-11-11T16:12:52.055Z","isRelevant":true},{"internal_node_id":"0.0-0.0-9.0-1.0-0.0","rt":null,"response":null,"trial_type":"html-keyboard-response","stimulus":"Answer faster next time","time_elapsed":83075,"trial_index":19,"dateTime":"2021-11-11T16:12:52.859Z","isRelevant":false},{"internal_node_id":"0.0-0.0-9.0-0.1","rt":1744,"isLearning":true,"response":"n","trial_type":"image-keyboard-response","stimulus":"https://d3vowlh1lzbs4j.cloudfront.net/pat/belt1.jpg","time_elapsed":85580,"trial_index":20,"pic":"belt1.jpg","type":"Target","dateTime":"2021-11-11T16:12:55.365Z","isRelevant":true},{"internal_node_id":"0.0-0.0-9.0-0.2","rt":1542,"isLearning":true,"response":"y","trial_type":"image-keyboard-response","stimulus":"https://d3vowlh1lzbs4j.cloudfront.net/pat/domino1.jpg","time_elapsed":88082,"trial_index":21,"pic":"domino1.jpg","type":"Target","dateTime":"2021-11-11T16:12:57.867Z","isRelevant":true},{"internal_node_id":"0.0-0.0-9.0-0.3","rt":1368,"isLearning":true,"response":"y","trial_type":"image-keyboard-response","stimulus":"https://d3vowlh1lzbs4j.cloudfront.net/pat/crayon1.jpg","time_elapsed":90588,"trial_index":22,"pic":"crayon1.jpg","type":"Target","dateTime":"2021-11-11T16:13:00.372Z","isRelevant":true},{"internal_node_id":"0.0-0.0-9.0-0.4","rt":1280,"isLearning":true,"response":"n","trial_type":"image-keyboard-response","stimulus":"https://d3vowlh1lzbs4j.cloudfront.net/pat/arrow_target1.jpg","time_elapsed":93089,"trial_index":23,"pic":"arrow_target1.jpg","type":"Target","dateTime":"2021-11-11T16:13:02.873Z","isRelevant":true},{"internal_node_id":"0.0-0.0-9.0-0.5","rt":1378,"isLearning":true,"response":"n","trial_type":"image-keyboard-response","stimulus":"https://d3vowlh1lzbs4j.cloudfront.net/pat/microwave_old1.jpg","time_elapsed":95592,"trial_index":24,"pic":"microwave_old1.jpg","type":"Target","dateTime":"2021-11-11T16:13:05.376Z","isRelevant":true},{"internal_node_id":"0.0-0.0-9.0-0.6","rt":1588,"isLearning":true,"response":"y","trial_type":"image-keyboard-response","stimulus":"https://d3vowlh1lzbs4j.cloudfront.net/pat/diapers1.jpg","time_elapsed":98094,"trial_index":25,"pic":"diapers1.jpg","type":"Target","dateTime":"2021-11-11T16:13:07.878Z","isRelevant":true},{"internal_node_id":"0.0-0.0-9.0-0.7","rt":1453,"isLearning":true,"response":"n","trial_type":"image-keyboard-response","stimulus":"https://d3vowlh1lzbs4j.cloudfront.net/pat/bulldozer1.jpg","time_elapsed":100599,"trial_index":26,"pic":"bulldozer1.jpg","type":"Target","dateTime":"2021-11-11T16:13:10.383Z","isRelevant":true},{"internal_node_id":"0.0-0.0-9.0-0.8","rt":1901,"isLearning":true,"response":"y","trial_type":"image-keyboard-response","stimulus":"https://d3vowlh1lzbs4j.cloudfront.net/pat/pen_green1.jpg","time_elapsed":103101,"trial_index":27,"pic":"pen_green1.jpg","type":"Target","dateTime":"2021-11-11T16:13:12.885Z","isRelevant":true},{"internal_node_id":"0.0-0.0-9.0-0.9","rt":1240,"isLearning":true,"response":"y","trial_type":"image-keyboard-response","stimulus":"https://d3vowlh1lzbs4j.cloudfront.net/pat/caterpillar1.jpg","time_elapsed":105603,"trial_index":28,"pic":"caterpillar1.jpg","type":"Target","dateTime":"2021-11-11T16:13:15.387Z","isRelevant":true},{"internal_node_id":"0.0-0.0-9.0-0.10","rt":1194,"isLearning":true,"response":"n","trial_type":"image-keyboard-response","stimulus":"https://d3vowlh1lzbs4j.cloudfront.net/pat/red_box1.jpg","time_elapsed":108105,"trial_index":29,"pic":"red_box1.jpg","type":"Target","dateTime":"2021-11-11T16:13:17.889Z","isRelevant":true},{"internal_node_id":"0.0-0.0-9.0-0.11","rt":1722,"isLearning":true,"response":"n","trial_type":"image-keyboard-response","stimulus":"https://d3vowlh1lzbs4j.cloudfront.net/pat/school_bag1.jpg","time_elapsed":110607,"trial_index":30,"pic":"school_bag1.jpg","type":"Target","dateTime":"2021-11-11T16:13:20.391Z","isRelevant":true},{"internal_node_id":"0.0-0.0-9.0-0.12","rt":1132,"isLearning":true,"response":"y","trial_type":"image-keyboard-response","stimulus":"https://d3vowlh1lzbs4j.cloudfront.net/pat/Lipstick_1.jpg","time_elapsed":113109,"trial_index":31,"pic":"Lipstick_1.jpg","type":"Target","dateTime":"2021-11-11T16:13:22.893Z","isRelevant":true},{"internal_node_id":"0.0-0.0-9.0-0.13","rt":1223,"isLearning":true,"response":"n","trial_type":"image-keyboard-response","stimulus":"https://d3vowlh1lzbs4j.cloudfront.net/pat/golf_bag1.jpg","time_elapsed":115611,"trial_index":32,"pic":"golf_bag1.jpg","type":"Target","dateTime":"2021-11-11T16:13:25.395Z","isRelevant":true},{"internal_node_id":"0.0-0.0-9.0-0.14","rt":1122,"isLearning":true,"response":"y","trial_type":"image-keyboard-response","stimulus":"https://d3vowlh1lzbs4j.cloudfront.net/pat/first_place1.jpg","time_elapsed":118116,"trial_index":33,"pic":"first_place1.jpg","type":"Target","dateTime":"2021-11-11T16:13:27.900Z","isRelevant":true},{"internal_node_id":"0.0-0.0-9.0-0.15","rt":1137,"isLearning":true,"response":"y","trial_type":"image-keyboard-response","stimulus":"https://d3vowlh1lzbs4j.cloudfront.net/pat/euro501.jpg","time_elapsed":120618,"trial_index":34,"pic":"euro501.jpg","type":"Target","dateTime":"2021-11-11T16:13:30.402Z","isRelevant":true},{"internal_node_id":"0.0-0.0-9.0-0.16","rt":1482,"isLearning":true,"response":"n","trial_type":"image-keyboard-response","stimulus":"https://d3vowlh1lzbs4j.cloudfront.net/pat/football1.jpg","time_elapsed":123123,"trial_index":35,"pic":"football1.jpg","type":"Target","dateTime":"2021-11-11T16:13:32.907Z","isRelevant":true},{"internal_node_id":"0.0-0.0-9.0-0.17","rt":1961,"isLearning":true,"response":"n","trial_type":"image-keyboard-response","stimulus":"https://d3vowlh1lzbs4j.cloudfront.net/pat/chutes_and_ladders1.jpg","time_elapsed":125625,"trial_index":36,"pic":"chutes_and_ladders1.jpg","type":"Target","dateTime":"2021-11-11T16:13:35.409Z","isRelevant":true},{"internal_node_id":"0.0-0.0-9.0-0.18","rt":1652,"isLearning":true,"response":"n","trial_type":"image-keyboard-response","stimulus":"https://d3vowlh1lzbs4j.cloudfront.net/pat/polar_bear1.jpg","time_elapsed":128130,"trial_index":37,"pic":"polar_bear1.jpg","type":"Target","dateTime":"2021-11-11T16:13:37.915Z","isRelevant":true},{"internal_node_id":"0.0-0.0-9.0-0.19","rt":null,"isLearning":true,"response":null,"trial_type":"image-keyboard-response","stimulus":"https://d3vowlh1lzbs4j.cloudfront.net/pat/camcorder_1.jpg","time_elapsed":130637,"trial_index":38,"pic":"camcorder_1.jpg","type":"Target","dateTime":"2021-11-11T16:13:40.421Z","isRelevant":true},{"internal_node_id":"0.0-0.0-9.0-1.19-0.19","rt":null,"response":null,"trial_type":"html-keyboard-response","stimulus":"Answer faster next time","time_elapsed":131439,"trial_index":39,"dateTime":"2021-11-11T16:13:41.223Z","isRelevant":false},{"internal_node_id":"0.0-0.0-9.0-0.20","rt":1360,"isLearning":true,"response":"y","trial_type":"image-keyboard-response","stimulus":"https://d3vowlh1lzbs4j.cloudfront.net/pat/snare_drum1.jpg","time_elapsed":133944,"trial_index":40,"pic":"snare_drum1.jpg","type":"Target","dateTime":"2021-11-11T16:13:43.728Z","isRelevant":true},{"internal_node_id":"0.0-0.0-9.0-0.21","rt":1945,"isLearning":true,"response":"n","trial_type":"image-keyboard-response","stimulus":"https://d3vowlh1lzbs4j.cloudfront.net/pat/box_of_nails1.jpg","time_elapsed":136451,"trial_index":41,"pic":"box_of_nails1.jpg","type":"Target","dateTime":"2021-11-11T16:13:46.235Z","isRelevant":true},{"internal_node_id":"0.0-0.0-9.0-0.22","rt":1319,"isLearning":true,"response":"n","trial_type":"image-keyboard-response","stimulus":"https://d3vowlh1lzbs4j.cloudfront.net/pat/coffee_maker1.jpg","time_elapsed":138958,"trial_index":42,"pic":"coffee_maker1.jpg","type":"Target","dateTime":"2021-11-11T16:13:48.742Z","isRelevant":true},{"internal_node_id":"0.0-0.0-9.0-0.23","rt":1126,"isLearning":true,"response":"n","trial_type":"image-keyboard-response","stimulus":"https://d3vowlh1lzbs4j.cloudfront.net/pat/hockey_stick1.jpg","time_elapsed":141460,"trial_index":43,"pic":"hockey_stick1.jpg","type":"Target","dateTime":"2021-11-11T16:13:51.244Z","isRelevant":true},{"internal_node_id":"0.0-0.0-9.0-0.24","rt":1216,"isLearning":true,"response":"n","trial_type":"image-keyboard-response","stimulus":"https://d3vowlh1lzbs4j.cloudfront.net/pat/computer_keys1.jpg","time_elapsed":143963,"trial_index":44,"pic":"computer_keys1.jpg","type":"Target","dateTime":"2021-11-11T16:13:53.747Z","isRelevant":true},{"internal_node_id":"0.0-0.0-9.0-0.25","rt":2066,"isLearning":true,"response":"n","trial_type":"image-keyboard-response","stimulus":"https://d3vowlh1lzbs4j.cloudfront.net/pat/america_flag1.jpg","time_elapsed":146465,"trial_index":45,"pic":"america_flag1.jpg","type":"Target","dateTime":"2021-11-11T16:13:56.250Z","isRelevant":true},{"internal_node_id":"0.0-0.0-9.0-0.26","rt":1093,"isLearning":true,"response":"y","trial_type":"image-keyboard-response","stimulus":"https://d3vowlh1lzbs4j.cloudfront.net/pat/key_chain1.jpg","time_elapsed":148968,"trial_index":46,"pic":"key_chain1.jpg","type":"Target","dateTime":"2021-11-11T16:13:58.752Z","isRelevant":true},{"internal_node_id":"0.0-0.0-9.0-0.27","rt":910,"isLearning":true,"response":"n","trial_type":"image-keyboard-response","stimulus":"https://d3vowlh1lzbs4j.cloudfront.net/pat/drumset1.jpg","time_elapsed":151471,"trial_index":47,"pic":"drumset1.jpg","type":"Target","dateTime":"2021-11-11T16:14:01.255Z","isRelevant":true},{"internal_node_id":"0.0-0.0-9.0-0.28","rt":1801,"isLearning":true,"response":"y","trial_type":"image-keyboard-response","stimulus":"https://d3vowlh1lzbs4j.cloudfront.net/pat/book_objects1.jpg","time_elapsed":153973,"trial_index":48,"pic":"book_objects1.jpg","type":"Target","dateTime":"2021-11-11T16:14:03.757Z","isRelevant":true},{"internal_node_id":"0.0-0.0-9.0-0.29","rt":1299,"isLearning":true,"response":"y","trial_type":"image-keyboard-response","stimulus":"https://d3vowlh1lzbs4j.cloudfront.net/pat/old_alarmclock1.jpg","time_elapsed":156476,"trial_index":49,"pic":"old_alarmclock1.jpg","type":"Target","dateTime":"2021-11-11T16:14:06.260Z","isRelevant":true},{"internal_node_id":"0.0-0.0-10.0-0.0","rt":1269,"isLearning":true,"response":"n","trial_type":"image-keyboard-response","stimulus":"https://d3vowlh1lzbs4j.cloudfront.net/pat/baby_toy1.jpg","time_elapsed":158981,"trial_index":50,"pic":"baby_toy1.jpg","type":"Target","dateTime":"2021-11-11T16:14:08.766Z","isRelevant":true},{"internal_node_id":"0.0-0.0-10.0-0.1","rt":1716,"isLearning":true,"response":"y","trial_type":"image-keyboard-response","stimulus":"https://d3vowlh1lzbs4j.cloudfront.net/pat/belt1.jpg","time_elapsed":161483,"trial_index":51,"pic":"belt1.jpg","type":"Target","dateTime":"2021-11-11T16:14:11.268Z","isRelevant":true},{"internal_node_id":"0.0-0.0-10.0-0.2","rt":1493,"isLearning":true,"response":"y","trial_type":"image-keyboard-response","stimulus":"https://d3vowlh1lzbs4j.cloudfront.net/pat/domino1.jpg","time_elapsed":163985,"trial_index":52,"pic":"domino1.jpg","type":"Target","dateTime":"2021-11-11T16:14:13.770Z","isRelevant":true},{"internal_node_id":"0.0-0.0-10.0-0.3","rt":1200,"isLearning":true,"response":"y","trial_type":"image-keyboard-response","stimulus":"https://d3vowlh1lzbs4j.cloudfront.net/pat/crayon1.jpg","time_elapsed":166488,"trial_index":53,"pic":"crayon1.jpg","type":"Target","dateTime":"2021-11-11T16:14:16.272Z","isRelevant":true},{"internal_node_id":"0.0-0.0-10.0-0.4","rt":1361,"isLearning":true,"response":"n","trial_type":"image-keyboard-response","stimulus":"https://d3vowlh1lzbs4j.cloudfront.net/pat/arrow_target1.jpg","time_elapsed":168993,"trial_index":54,"pic":"arrow_target1.jpg","type":"Target","dateTime":"2021-11-11T16:14:18.777Z","isRelevant":true},{"internal_node_id":"0.0-0.0-10.0-0.5","rt":1185,"isLearning":true,"response":"n","trial_type":"image-keyboard-response","stimulus":"https://d3vowlh1lzbs4j.cloudfront.net/pat/microwave_old1.jpg","time_elapsed":171497,"trial_index":55,"pic":"microwave_old1.jpg","type":"Target","dateTime":"2021-11-11T16:14:21.282Z","isRelevant":true},{"internal_node_id":"0.0-0.0-10.0-0.6","rt":1240,"isLearning":true,"response":"y","trial_type":"image-keyboard-response","stimulus":"https://d3vowlh1lzbs4j.cloudfront.net/pat/diapers1.jpg","time_elapsed":174003,"trial_index":56,"pic":"diapers1.jpg","type":"Target","dateTime":"2021-11-11T16:14:23.787Z","isRelevant":true},{"internal_node_id":"0.0-0.0-10.0-0.7","rt":1039,"isLearning":true,"response":"n","trial_type":"image-keyboard-response","stimulus":"https://d3vowlh1lzbs4j.cloudfront.net/pat/bulldozer1.jpg","time_elapsed":176505,"trial_index":57,"pic":"bulldozer1.jpg","type":"Target","dateTime":"2021-11-11T16:14:26.289Z","isRelevant":true},{"internal_node_id":"0.0-0.0-10.0-0.8","rt":2209,"isLearning":true,"response":"n","trial_type":"image-keyboard-response","stimulus":"https://d3vowlh1lzbs4j.cloudfront.net/pat/pen_green1.jpg","time_elapsed":179011,"trial_index":58,"pic":"pen_green1.jpg","type":"Target","dateTime":"2021-11-11T16:14:28.796Z","isRelevant":true},{"internal_node_id":"0.0-0.0-10.0-0.9","rt":1094,"isLearning":true,"response":"y","trial_type":"image-keyboard-response","stimulus":"https://d3vowlh1lzbs4j.cloudfront.net/pat/caterpillar1.jpg","time_elapsed":181515,"trial_index":59,"pic":"caterpillar1.jpg","type":"Target","dateTime":"2021-11-11T16:14:31.299Z","isRelevant":true},{"internal_node_id":"0.0-0.0-10.0-0.10","rt":1289,"isLearning":true,"response":"y","trial_type":"image-keyboard-response","stimulus":"https://d3vowlh1lzbs4j.cloudfront.net/pat/red_box1.jpg","time_elapsed":184017,"trial_index":60,"pic":"red_box1.jpg","type":"Target","dateTime":"2021-11-11T16:14:33.802Z","isRelevant":true},{"internal_node_id":"0.0-0.0-10.0-0.11","rt":1482,"isLearning":true,"response":"y","trial_type":"image-keyboard-response","stimulus":"https://d3vowlh1lzbs4j.cloudfront.net/pat/school_bag1.jpg","time_elapsed":186519,"trial_index":61,"pic":"school_bag1.jpg","type":"Target","dateTime":"2021-11-11T16:14:36.303Z","isRelevant":true},{"internal_node_id":"0.0-0.0-10.0-0.12","rt":1076,"isLearning":true,"response":"y","trial_type":"image-keyboard-response","stimulus":"https://d3vowlh1lzbs4j.cloudfront.net/pat/Lipstick_1.jpg","time_elapsed":189022,"trial_index":62,"pic":"Lipstick_1.jpg","type":"Target","dateTime":"2021-11-11T16:14:38.806Z","isRelevant":true},{"internal_node_id":"0.0-0.0-10.0-0.13","rt":1245,"isLearning":true,"response":"y","trial_type":"image-keyboard-response","stimulus":"https://d3vowlh1lzbs4j.cloudfront.net/pat/golf_bag1.jpg","time_elapsed":191523,"trial_index":63,"pic":"golf_bag1.jpg","type":"Target","dateTime":"2021-11-11T16:14:41.307Z","isRelevant":true},{"internal_node_id":"0.0-0.0-10.0-0.14","rt":1079,"isLearning":true,"response":"y","trial_type":"image-keyboard-response","stimulus":"https://d3vowlh1lzbs4j.cloudfront.net/pat/first_place1.jpg","time_elapsed":194026,"trial_index":64,"pic":"first_place1.jpg","type":"Target","dateTime":"2021-11-11T16:14:43.810Z","isRelevant":true},{"internal_node_id":"0.0-0.0-10.0-0.15","rt":809,"isLearning":true,"response":"y","trial_type":"image-keyboard-response","stimulus":"https://d3vowlh1lzbs4j.cloudfront.net/pat/euro501.jpg","time_elapsed":196528,"trial_index":65,"pic":"euro501.jpg","type":"Target","dateTime":"2021-11-11T16:14:46.312Z","isRelevant":true},{"internal_node_id":"0.0-0.0-10.0-0.16","rt":1260,"isLearning":true,"response":"y","trial_type":"image-keyboard-response","stimulus":"https://d3vowlh1lzbs4j.cloudfront.net/pat/football1.jpg","time_elapsed":199030,"trial_index":66,"pic":"football1.jpg","type":"Target","dateTime":"2021-11-11T16:14:48.814Z","isRelevant":true},{"internal_node_id":"0.0-0.0-10.0-0.17","rt":1374,"isLearning":true,"response":"y","trial_type":"image-keyboard-response","stimulus":"https://d3vowlh1lzbs4j.cloudfront.net/pat/chutes_and_ladders1.jpg","time_elapsed":201532,"trial_index":67,"pic":"chutes_and_ladders1.jpg","type":"Target","dateTime":"2021-11-11T16:14:51.316Z","isRelevant":true},{"internal_node_id":"0.0-0.0-10.0-0.18","rt":1144,"isLearning":true,"response":"n","trial_type":"image-keyboard-response","stimulus":"https://d3vowlh1lzbs4j.cloudfront.net/pat/polar_bear1.jpg","time_elapsed":204037,"trial_index":68,"pic":"polar_bear1.jpg","type":"Target","dateTime":"2021-11-11T16:14:53.821Z","isRelevant":true},{"internal_node_id":"0.0-0.0-10.0-0.19","rt":1063,"isLearning":true,"response":"y","trial_type":"image-keyboard-response","stimulus":"https://d3vowlh1lzbs4j.cloudfront.net/pat/camcorder_1.jpg","time_elapsed":206539,"trial_index":69,"pic":"camcorder_1.jpg","type":"Target","dateTime":"2021-11-11T16:14:56.323Z","isRelevant":true},{"internal_node_id":"0.0-0.0-10.0-0.20","rt":1498,"isLearning":true,"response":"n","trial_type":"image-keyboard-response","stimulus":"https://d3vowlh1lzbs4j.cloudfront.net/pat/snare_drum1.jpg","time_elapsed":209041,"trial_index":70,"pic":"snare_drum1.jpg","type":"Target","dateTime":"2021-11-11T16:14:58.825Z","isRelevant":true},{"internal_node_id":"0.0-0.0-10.0-0.21","rt":1460,"isLearning":true,"response":"y","trial_type":"image-keyboard-response","stimulus":"https://d3vowlh1lzbs4j.cloudfront.net/pat/box_of_nails1.jpg","time_elapsed":211543,"trial_index":71,"pic":"box_of_nails1.jpg","type":"Target","dateTime":"2021-11-11T16:15:01.327Z","isRelevant":true},{"internal_node_id":"0.0-0.0-10.0-0.22","rt":1637,"isLearning":true,"response":"y","trial_type":"image-keyboard-response","stimulus":"https://d3vowlh1lzbs4j.cloudfront.net/pat/coffee_maker1.jpg","time_elapsed":214045,"trial_index":72,"pic":"coffee_maker1.jpg","type":"Target","dateTime":"2021-11-11T16:15:03.829Z","isRelevant":true},{"internal_node_id":"0.0-0.0-10.0-0.23","rt":null,"isLearning":true,"response":null,"trial_type":"image-keyboard-response","stimulus":"https://d3vowlh1lzbs4j.cloudfront.net/pat/hockey_stick1.jpg","time_elapsed":216547,"trial_index":73,"pic":"hockey_stick1.jpg","type":"Target","dateTime":"2021-11-11T16:15:06.331Z","isRelevant":true},{"internal_node_id":"0.0-0.0-10.0-1.23-0.23","rt":null,"response":null,"trial_type":"html-keyboard-response","stimulus":"Answer faster next time","time_elapsed":217350,"trial_index":74,"dateTime":"2021-11-11T16:15:07.134Z","isRelevant":false},{"internal_node_id":"0.0-0.0-10.0-0.24","rt":1031,"isLearning":true,"response":"y","trial_type":"image-keyboard-response","stimulus":"https://d3vowlh1lzbs4j.cloudfront.net/pat/computer_keys1.jpg","time_elapsed":219852,"trial_index":75,"pic":"computer_keys1.jpg","type":"Target","dateTime":"2021-11-11T16:15:09.636Z","isRelevant":true},{"internal_node_id":"0.0-0.0-10.0-0.25","rt":896,"isLearning":true,"response":"y","trial_type":"image-keyboard-response","stimulus":"https://d3vowlh1lzbs4j.cloudfront.net/pat/america_flag1.jpg","time_elapsed":222355,"trial_index":76,"pic":"america_flag1.jpg","type":"Target","dateTime":"2021-11-11T16:15:12.139Z","isRelevant":true},{"internal_node_id":"0.0-0.0-10.0-0.26","rt":769,"isLearning":true,"response":"y","trial_type":"image-keyboard-response","stimulus":"https://d3vowlh1lzbs4j.cloudfront.net/pat/key_chain1.jpg","time_elapsed":224857,"trial_index":77,"pic":"key_chain1.jpg","type":"Target","dateTime":"2021-11-11T16:15:14.641Z","isRelevant":true},{"internal_node_id":"0.0-0.0-10.0-0.27","rt":1195,"isLearning":true,"response":"n","trial_type":"image-keyboard-response","stimulus":"https://d3vowlh1lzbs4j.cloudfront.net/pat/drumset1.jpg","time_elapsed":227359,"trial_index":78,"pic":"drumset1.jpg","type":"Target","dateTime":"2021-11-11T16:15:17.143Z","isRelevant":true},{"internal_node_id":"0.0-0.0-10.0-0.28","rt":1005,"isLearning":true,"response":"y","trial_type":"image-keyboard-response","stimulus":"https://d3vowlh1lzbs4j.cloudfront.net/pat/book_objects1.jpg","time_elapsed":229861,"trial_index":79,"pic":"book_objects1.jpg","type":"Target","dateTime":"2021-11-11T16:15:19.646Z","isRelevant":true},{"internal_node_id":"0.0-0.0-10.0-0.29","rt":880,"isLearning":true,"response":"y","trial_type":"image-keyboard-response","stimulus":"https://d3vowlh1lzbs4j.cloudfront.net/pat/old_alarmclock1.jpg","time_elapsed":232366,"trial_index":80,"pic":"old_alarmclock1.jpg","type":"Target","dateTime":"2021-11-11T16:15:22.151Z","isRelevant":true},{"ua":"Mozilla/5.0 (Macintosh; Intel Mac OS X 10.15; rv:94.0) Gecko/20100101 Firefox/94.0","dateTime":"2021-11-11T16:15:22.152Z","isRelevant":false},{"taskStarted":true,"dateTime":"2021-11-13T22:26:42.429Z","isRelevant":false},{"internal_node_id":"0.0-0.0-1.0","success":true,"trial_type":"preload","failed_images":[],"time_elapsed":292,"trial_index":0,"failed_audio":[],"failed_video":[],"timeout":false,"dateTime":"2021-11-13T22:26:42.721Z","isRelevant":false},{"internal_node_id":"0.0-0.0-2.0","rt":22693,"response":" ","trial_type":"html-keyboard-response","stimulus":"<h2>Pattern Separation Task</h2> <p> You are about to start a new task. In this task, you will be asked to view a series of common objects and remember them for a later memory test. While you view each item, please answer yes or no to the following questions: </p> Will the object fit inside a lady’s medium shoe box?<br/> Can you carry the object across the room using only your right hand?<br/> <p> Before we begin the actual task, let’s try a few practice trials. </p> <em>Press the space bar to continue</em>","time_elapsed":22988,"trial_index":1,"dateTime":"2021-11-13T22:27:05.417Z","isRelevant":false},{"internal_node_id":"0.0-0.0-3.0","rt":7969,"response":" ","trial_type":"html-keyboard-response","stimulus":"<h2>Pattern Separation Task</h2> <p> In the practice trials, you will see 4 items twice. Please answer the question presented underneath the item by pressing \"y\" for \"yes\" or \"n\" for \"no\" as well as trying to remember them for a later memory test. </p> <em>Press the space bar to continue</em> ","time_elapsed":30959,"trial_index":2,"dateTime":"2021-11-13T22:27:13.388Z","isRelevant":false},{"internal_node_id":"0.0-0.0-4.0-0.0","rt":2070,"isLearning":true,"isPractice":true,"response":"n","trial_type":"image-keyboard-response","stimulus":"https://d3vowlh1lzbs4j.cloudfront.net/pat/violin1.jpg","time_elapsed":33464,"trial_index":3,"pic":"violin1.jpg","type":"Target","dateTime":"2021-11-13T22:27:15.893Z","isRelevant":true},{"internal_node_id":"0.0-0.0-4.0-0.1","rt":1849,"isLearning":true,"isPractice":true,"response":"n","trial_type":"image-keyboard-response","stimulus":"https://d3vowlh1lzbs4j.cloudfront.net/pat/waffle_maker1.jpg","time_elapsed":35966,"trial_index":4,"pic":"waffle_maker1.jpg","type":"Target","dateTime":"2021-11-13T22:27:18.395Z","isRelevant":true},{"internal_node_id":"0.0-0.0-4.0-0.2","rt":1827,"isLearning":true,"isPractice":true,"response":"n","trial_type":"image-keyboard-response","stimulus":"https://d3vowlh1lzbs4j.cloudfront.net/pat/typewritter1.jpg","time_elapsed":38471,"trial_index":5,"pic":"typewritter1.jpg","type":"Target","dateTime":"2021-11-13T22:27:20.900Z","isRelevant":true},{"internal_node_id":"0.0-0.0-4.0-0.3","rt":2402,"isLearning":true,"isPractice":true,"response":"n","trial_type":"image-keyboard-response","stimulus":"https://d3vowlh1lzbs4j.cloudfront.net/pat/Wagon_1.jpg","time_elapsed":40975,"trial_index":6,"pic":"Wagon_1.jpg","type":"Target","dateTime":"2021-11-13T22:27:23.404Z","isRelevant":true},{"internal_node_id":"0.0-0.0-5.0-0.0","rt":null,"isLearning":true,"isPractice":true,"response":null,"trial_type":"image-keyboard-response","stimulus":"https://d3vowlh1lzbs4j.cloudfront.net/pat/violin1.jpg","time_elapsed":43481,"trial_index":7,"pic":"violin1.jpg","type":"Target","dateTime":"2021-11-13T22:27:25.910Z","isRelevant":true},{"internal_node_id":"0.0-0.0-5.0-1.0-0.0","rt":null,"response":null,"trial_type":"html-keyboard-response","stimulus":"Answer faster next time","time_elapsed":44283,"trial_index":8,"dateTime":"2021-11-13T22:27:26.712Z","isRelevant":false},{"internal_node_id":"0.0-0.0-5.0-0.1","rt":2046,"isLearning":true,"isPractice":true,"response":"y","trial_type":"image-keyboard-response","stimulus":"https://d3vowlh1lzbs4j.cloudfront.net/pat/waffle_maker1.jpg","time_elapsed":46787,"trial_index":9,"pic":"waffle_maker1.jpg","type":"Target","dateTime":"2021-11-13T22:27:29.216Z","isRelevant":true},{"internal_node_id":"0.0-0.0-5.0-0.2","rt":1815,"isLearning":true,"isPractice":true,"response":"y","trial_type":"image-keyboard-response","stimulus":"https://d3vowlh1lzbs4j.cloudfront.net/pat/typewritter1.jpg","time_elapsed":49289,"trial_index":10,"pic":"typewritter1.jpg","type":"Target","dateTime":"2021-11-13T22:27:31.718Z","isRelevant":true},{"internal_node_id":"0.0-0.0-5.0-0.3","rt":1655,"isLearning":true,"isPractice":true,"response":"y","trial_type":"image-keyboard-response","stimulus":"https://d3vowlh1lzbs4j.cloudfront.net/pat/Wagon_1.jpg","time_elapsed":51794,"trial_index":11,"pic":"Wagon_1.jpg","type":"Target","dateTime":"2021-11-13T22:27:34.223Z","isRelevant":true},{"internal_node_id":"0.0-0.0-6.0","rt":8816,"response":" ","trial_type":"html-keyboard-response","stimulus":"<h2>Pattern Separation Task</h2> <p> You will be tested on your memory for the objects you saw earlier. Please indicate whether each item is 1 = definitely old, 2 = maybe old, 3 = maybe new, or 4 = definitely new. “Definitely old” means you are confident that you saw the object. “Maybe old” means that you think you saw the object, but not completely sure.   ”Maybe new” means that you don’t think you saw the object, but not completely sure. “Definitely new” means you are confident that you did not see the object. </p> <em>Press the space bar to continue</em> ","time_elapsed":60611,"trial_index":12,"dateTime":"2021-11-13T22:27:43.040Z","isRelevant":false},{"internal_node_id":"0.0-0.0-7.0-0.0","rt":3116,"isPractice":true,"response":"1","trial_type":"image-keyboard-response","stimulus":"https://d3vowlh1lzbs4j.cloudfront.net/pat/violin1.jpg","time_elapsed":63728,"isRecall":true,"trial_index":13,"pic":"violin1.jpg","type":"Target","dateTime":"2021-11-13T22:27:46.157Z","isRelevant":true},{"internal_node_id":"0.0-0.0-7.0-0.1","rt":1537,"isPractice":true,"response":"1","trial_type":"image-keyboard-response","stimulus":"https://d3vowlh1lzbs4j.cloudfront.net/pat/Wagon_1.jpg","time_elapsed":65267,"isRecall":true,"trial_index":14,"pic":"Wagon_1.jpg","type":"Target","dateTime":"2021-11-13T22:27:47.696Z","isRelevant":true},{"internal_node_id":"0.0-0.0-7.0-0.2","rt":1758,"isPractice":true,"response":"1","trial_type":"image-keyboard-response","stimulus":"https://d3vowlh1lzbs4j.cloudfront.net/pat/waffle_maker1.jpg","time_elapsed":67027,"isRecall":true,"trial_index":15,"pic":"waffle_maker1.jpg","type":"Target","dateTime":"2021-11-13T22:27:49.456Z","isRelevant":true},{"internal_node_id":"0.0-0.0-7.0-0.3","rt":1318,"isPractice":true,"response":"1","trial_type":"image-keyboard-response","stimulus":"https://d3vowlh1lzbs4j.cloudfront.net/pat/typewritter1.jpg","time_elapsed":68347,"isRecall":true,"trial_index":16,"pic":"typewritter1.jpg","type":"Target","dateTime":"2021-11-13T22:27:50.776Z","isRelevant":true},{"internal_node_id":"0.0-0.0-8.0","rt":78958,"response":" ","trial_type":"html-keyboard-response","stimulus":"<h2>Pattern Separation Task</h2> <p> We will begin the actual task. You will see 30 items. Please answer the question presented underneath the item as well as trying to remember them for a later memory test. Please note that the memory test will be given 30 minutes after this viewing session. </p> <em>Press the space bar to continue</em> ","time_elapsed":147310,"trial_index":17,"dateTime":"2021-11-13T22:29:09.739Z","isRelevant":false},{"internal_node_id":"0.0-0.0-9.0-0.0","rt":1662,"isLearning":true,"response":"y","trial_type":"image-keyboard-response","stimulus":"https://d3vowlh1lzbs4j.cloudfront.net/pat/Broom_1.jpg","time_elapsed":149814,"trial_index":18,"pic":"Broom_1.jpg","type":"Target","dateTime":"2021-11-13T22:29:12.243Z","isRelevant":true},{"internal_node_id":"0.0-0.0-9.0-0.1","rt":1182,"isLearning":true,"response":"y","trial_type":"image-keyboard-response","stimulus":"https://d3vowlh1lzbs4j.cloudfront.net/pat/Jeans_1.jpg","time_elapsed":152316,"trial_index":19,"pic":"Jeans_1.jpg","type":"Target","dateTime":"2021-11-13T22:29:14.745Z","isRelevant":true},{"internal_node_id":"0.0-0.0-9.0-0.2","rt":1424,"isLearning":true,"response":"y","trial_type":"image-keyboard-response","stimulus":"https://d3vowlh1lzbs4j.cloudfront.net/pat/flash_light1.jpg","time_elapsed":154818,"trial_index":20,"pic":"flash_light1.jpg","type":"Target","dateTime":"2021-11-13T22:29:17.247Z","isRelevant":true},{"internal_node_id":"0.0-0.0-9.0-0.3","rt":1330,"isLearning":true,"response":"y","trial_type":"image-keyboard-response","stimulus":"https://d3vowlh1lzbs4j.cloudfront.net/pat/BWPK1.jpg","time_elapsed":157320,"trial_index":21,"pic":"BWPK1.jpg","type":"Target","dateTime":"2021-11-13T22:29:19.749Z","isRelevant":true},{"internal_node_id":"0.0-0.0-9.0-0.4","rt":1157,"isLearning":true,"response":"y","trial_type":"image-keyboard-response","stimulus":"https://d3vowlh1lzbs4j.cloudfront.net/pat/plastic_rooster1.jpg","time_elapsed":159822,"trial_index":22,"pic":"plastic_rooster1.jpg","type":"Target","dateTime":"2021-11-13T22:29:22.251Z","isRelevant":true},{"internal_node_id":"0.0-0.0-9.0-0.5","rt":1398,"isLearning":true,"response":"n","trial_type":"image-keyboard-response","stimulus":"https://d3vowlh1lzbs4j.cloudfront.net/pat/hatbox1.jpg","time_elapsed":162324,"trial_index":23,"pic":"hatbox1.jpg","type":"Target","dateTime":"2021-11-13T22:29:24.753Z","isRelevant":true},{"internal_node_id":"0.0-0.0-9.0-0.6","rt":1184,"isLearning":true,"response":"y","trial_type":"image-keyboard-response","stimulus":"https://d3vowlh1lzbs4j.cloudfront.net/pat/comb1.jpg","time_elapsed":164826,"trial_index":24,"pic":"comb1.jpg","type":"Target","dateTime":"2021-11-13T22:29:27.255Z","isRelevant":true},{"internal_node_id":"0.0-0.0-9.0-0.7","rt":1242,"isLearning":true,"response":"n","trial_type":"image-keyboard-response","stimulus":"https://d3vowlh1lzbs4j.cloudfront.net/pat/outdoor_thermo1.jpg","time_elapsed":167330,"trial_index":25,"pic":"outdoor_thermo1.jpg","type":"Target","dateTime":"2021-11-13T22:29:29.759Z","isRelevant":true},{"internal_node_id":"0.0-0.0-9.0-0.8","rt":1298,"isLearning":true,"response":"n","trial_type":"image-keyboard-response","stimulus":"https://d3vowlh1lzbs4j.cloudfront.net/pat/stacked_chairs1.jpg","time_elapsed":169833,"trial_index":26,"pic":"stacked_chairs1.jpg","type":"Target","dateTime":"2021-11-13T22:29:32.262Z","isRelevant":true},{"internal_node_id":"0.0-0.0-9.0-0.9","rt":1067,"isLearning":true,"response":"y","trial_type":"image-keyboard-response","stimulus":"https://d3vowlh1lzbs4j.cloudfront.net/pat/paper_holder1.jpg","time_elapsed":172337,"trial_index":27,"pic":"paper_holder1.jpg","type":"Target","dateTime":"2021-11-13T22:29:34.766Z","isRelevant":true},{"internal_node_id":"0.0-0.0-9.0-0.10","rt":1085,"isLearning":true,"response":"y","trial_type":"image-keyboard-response","stimulus":"https://d3vowlh1lzbs4j.cloudfront.net/pat/chapstick1.jpg","time_elapsed":174839,"trial_index":28,"pic":"chapstick1.jpg","type":"Target","dateTime":"2021-11-13T22:29:37.268Z","isRelevant":true},{"internal_node_id":"0.0-0.0-9.0-0.11","rt":1007,"isLearning":true,"response":"n","trial_type":"image-keyboard-response","stimulus":"https://d3vowlh1lzbs4j.cloudfront.net/pat/clothes_iron1.jpg","time_elapsed":177342,"trial_index":29,"pic":"clothes_iron1.jpg","type":"Target","dateTime":"2021-11-13T22:29:39.771Z","isRelevant":true},{"internal_node_id":"0.0-0.0-9.0-0.12","rt":1055,"isLearning":true,"response":"y","trial_type":"image-keyboard-response","stimulus":"https://d3vowlh1lzbs4j.cloudfront.net/pat/dirtbug1.jpg","time_elapsed":179844,"trial_index":30,"pic":"dirtbug1.jpg","type":"Target","dateTime":"2021-11-13T22:29:42.273Z","isRelevant":true},{"internal_node_id":"0.0-0.0-9.0-0.13","rt":1027,"isLearning":true,"response":"y","trial_type":"image-keyboard-response","stimulus":"https://d3vowlh1lzbs4j.cloudfront.net/pat/seahorse1.jpg","time_elapsed":182352,"trial_index":31,"pic":"seahorse1.jpg","type":"Target","dateTime":"2021-11-13T22:29:44.781Z","isRelevant":true},{"internal_node_id":"0.0-0.0-9.0-0.14","rt":1093,"isLearning":true,"response":"n","trial_type":"image-keyboard-response","stimulus":"https://d3vowlh1lzbs4j.cloudfront.net/pat/cookie_stir1.jpg","time_elapsed":184858,"trial_index":32,"pic":"cookie_stir1.jpg","type":"Target","dateTime":"2021-11-13T22:29:47.287Z","isRelevant":true},{"internal_node_id":"0.0-0.0-9.0-0.15","rt":1044,"isLearning":true,"response":"n","trial_type":"image-keyboard-response","stimulus":"https://d3vowlh1lzbs4j.cloudfront.net/pat/gold_fishy1.jpg","time_elapsed":187362,"trial_index":33,"pic":"gold_fishy1.jpg","type":"Target","dateTime":"2021-11-13T22:29:49.791Z","isRelevant":true},{"internal_node_id":"0.0-0.0-9.0-0.16","rt":1556,"isLearning":true,"response":"y","trial_type":"image-keyboard-response","stimulus":"https://d3vowlh1lzbs4j.cloudfront.net/pat/film_reel1.jpg","time_elapsed":189864,"trial_index":34,"pic":"film_reel1.jpg","type":"Target","dateTime":"2021-11-13T22:29:52.293Z","isRelevant":true},{"internal_node_id":"0.0-0.0-9.0-0.17","rt":1421,"isLearning":true,"response":"n","trial_type":"image-keyboard-response","stimulus":"https://d3vowlh1lzbs4j.cloudfront.net/pat/road_sign1.jpg","time_elapsed":192365,"trial_index":35,"pic":"road_sign1.jpg","type":"Target","dateTime":"2021-11-13T22:29:54.795Z","isRelevant":true},{"internal_node_id":"0.0-0.0-9.0-0.18","rt":1111,"isLearning":true,"response":"n","trial_type":"image-keyboard-response","stimulus":"https://d3vowlh1lzbs4j.cloudfront.net/pat/atv1.jpg","time_elapsed":194868,"trial_index":36,"pic":"atv1.jpg","type":"Target","dateTime":"2021-11-13T22:29:57.297Z","isRelevant":true},{"internal_node_id":"0.0-0.0-9.0-0.19","rt":1465,"isLearning":true,"response":"n","trial_type":"image-keyboard-response","stimulus":"https://d3vowlh1lzbs4j.cloudfront.net/pat/babywalker_1.jpg","time_elapsed":197370,"trial_index":37,"pic":"babywalker_1.jpg","type":"Target","dateTime":"2021-11-13T22:29:59.799Z","isRelevant":true},{"internal_node_id":"0.0-0.0-9.0-0.20","rt":1493,"isLearning":true,"response":"y","trial_type":"image-keyboard-response","stimulus":"https://d3vowlh1lzbs4j.cloudfront.net/pat/BlowDryer_1.jpg","time_elapsed":199872,"trial_index":38,"pic":"BlowDryer_1.jpg","type":"Target","dateTime":"2021-11-13T22:30:02.301Z","isRelevant":true},{"internal_node_id":"0.0-0.0-9.0-0.21","rt":1895,"isLearning":true,"response":"y","trial_type":"image-keyboard-response","stimulus":"https://d3vowlh1lzbs4j.cloudfront.net/pat/duct_tape1.jpg","time_elapsed":202377,"trial_index":39,"pic":"duct_tape1.jpg","type":"Target","dateTime":"2021-11-13T22:30:04.806Z","isRelevant":true},{"internal_node_id":"0.0-0.0-9.0-0.22","rt":1357,"isLearning":true,"response":"y","trial_type":"image-keyboard-response","stimulus":"https://d3vowlh1lzbs4j.cloudfront.net/pat/dreidel1.jpg","time_elapsed":204879,"trial_index":40,"pic":"dreidel1.jpg","type":"Target","dateTime":"2021-11-13T22:30:07.308Z","isRelevant":true},{"internal_node_id":"0.0-0.0-9.0-0.23","rt":1382,"isLearning":true,"response":"n","trial_type":"image-keyboard-response","stimulus":"https://d3vowlh1lzbs4j.cloudfront.net/pat/menorah1.jpg","time_elapsed":207381,"trial_index":41,"pic":"menorah1.jpg","type":"Target","dateTime":"2021-11-13T22:30:09.810Z","isRelevant":true},{"internal_node_id":"0.0-0.0-9.0-0.24","rt":1257,"isLearning":true,"response":"n","trial_type":"image-keyboard-response","stimulus":"https://d3vowlh1lzbs4j.cloudfront.net/pat/present_box1.jpg","time_elapsed":209883,"trial_index":42,"pic":"present_box1.jpg","type":"Target","dateTime":"2021-11-13T22:30:12.312Z","isRelevant":true},{"internal_node_id":"0.0-0.0-9.0-0.25","rt":1163,"isLearning":true,"response":"y","trial_type":"image-keyboard-response","stimulus":"https://d3vowlh1lzbs4j.cloudfront.net/pat/Markers_1.jpg","time_elapsed":212385,"trial_index":43,"pic":"Markers_1.jpg","type":"Target","dateTime":"2021-11-13T22:30:14.814Z","isRelevant":true},{"internal_node_id":"0.0-0.0-9.0-0.26","rt":1109,"isLearning":true,"response":"y","trial_type":"image-keyboard-response","stimulus":"https://d3vowlh1lzbs4j.cloudfront.net/pat/altoids1.jpg","time_elapsed":214887,"trial_index":44,"pic":"altoids1.jpg","type":"Target","dateTime":"2021-11-13T22:30:17.316Z","isRelevant":true},{"internal_node_id":"0.0-0.0-9.0-0.27","rt":1055,"isLearning":true,"response":"n","trial_type":"image-keyboard-response","stimulus":"https://d3vowlh1lzbs4j.cloudfront.net/pat/Canoe_1.jpg","time_elapsed":217392,"trial_index":45,"pic":"Canoe_1.jpg","type":"Target","dateTime":"2021-11-13T22:30:19.821Z","isRelevant":true},{"internal_node_id":"0.0-0.0-9.0-0.28","rt":1758,"isLearning":true,"response":"y","trial_type":"image-keyboard-response","stimulus":"https://d3vowlh1lzbs4j.cloudfront.net/pat/books1.jpg","time_elapsed":219894,"trial_index":46,"pic":"books1.jpg","type":"Target","dateTime":"2021-11-13T22:30:22.323Z","isRelevant":true},{"internal_node_id":"0.0-0.0-9.0-0.29","rt":1440,"isLearning":true,"response":"n","trial_type":"image-keyboard-response","stimulus":"https://d3vowlh1lzbs4j.cloudfront.net/pat/deep_fryer1.jpg","time_elapsed":222396,"trial_index":47,"pic":"deep_fryer1.jpg","type":"Target","dateTime":"2021-11-13T22:30:24.826Z","isRelevant":true},{"internal_node_id":"0.0-0.0-10.0-0.0","rt":1186,"isLearning":true,"response":"n","trial_type":"image-keyboard-response","stimulus":"https://d3vowlh1lzbs4j.cloudfront.net/pat/Broom_1.jpg","time_elapsed":224898,"trial_index":48,"pic":"Broom_1.jpg","type":"Target","dateTime":"2021-11-13T22:30:27.327Z","isRelevant":true},{"internal_node_id":"0.0-0.0-10.0-0.1","rt":1996,"isLearning":true,"response":"y","trial_type":"image-keyboard-response","stimulus":"https://d3vowlh1lzbs4j.cloudfront.net/pat/Jeans_1.jpg","time_elapsed":227400,"trial_index":49,"pic":"Jeans_1.jpg","type":"Target","dateTime":"2021-11-13T22:30:29.829Z","isRelevant":true},{"internal_node_id":"0.0-0.0-10.0-0.2","rt":1631,"isLearning":true,"response":"y","trial_type":"image-keyboard-response","stimulus":"https://d3vowlh1lzbs4j.cloudfront.net/pat/flash_light1.jpg","time_elapsed":229902,"trial_index":50,"pic":"flash_light1.jpg","type":"Target","dateTime":"2021-11-13T22:30:32.331Z","isRelevant":true},{"internal_node_id":"0.0-0.0-10.0-0.3","rt":1825,"isLearning":true,"response":"y","trial_type":"image-keyboard-response","stimulus":"https://d3vowlh1lzbs4j.cloudfront.net/pat/BWPK1.jpg","time_elapsed":232404,"trial_index":51,"pic":"BWPK1.jpg","type":"Target","dateTime":"2021-11-13T22:30:34.833Z","isRelevant":true},{"internal_node_id":"0.0-0.0-10.0-0.4","rt":1467,"isLearning":true,"response":"y","trial_type":"image-keyboard-response","stimulus":"https://d3vowlh1lzbs4j.cloudfront.net/pat/plastic_rooster1.jpg","time_elapsed":234906,"trial_index":52,"pic":"plastic_rooster1.jpg","type":"Target","dateTime":"2021-11-13T22:30:37.335Z","isRelevant":true},{"internal_node_id":"0.0-0.0-10.0-0.5","rt":1630,"isLearning":true,"response":"n","trial_type":"image-keyboard-response","stimulus":"https://d3vowlh1lzbs4j.cloudfront.net/pat/hatbox1.jpg","time_elapsed":237408,"trial_index":53,"pic":"hatbox1.jpg","type":"Target","dateTime":"2021-11-13T22:30:39.837Z","isRelevant":true},{"internal_node_id":"0.0-0.0-10.0-0.6","rt":1079,"isLearning":true,"response":"y","trial_type":"image-keyboard-response","stimulus":"https://d3vowlh1lzbs4j.cloudfront.net/pat/comb1.jpg","time_elapsed":239913,"trial_index":54,"pic":"comb1.jpg","type":"Target","dateTime":"2021-11-13T22:30:42.342Z","isRelevant":true},{"internal_node_id":"0.0-0.0-10.0-0.7","rt":1110,"isLearning":true,"response":"n","trial_type":"image-keyboard-response","stimulus":"https://d3vowlh1lzbs4j.cloudfront.net/pat/outdoor_thermo1.jpg","time_elapsed":242420,"trial_index":55,"pic":"outdoor_thermo1.jpg","type":"Target","dateTime":"2021-11-13T22:30:44.849Z","isRelevant":true},{"internal_node_id":"0.0-0.0-10.0-0.8","rt":1531,"isLearning":true,"response":"n","trial_type":"image-keyboard-response","stimulus":"https://d3vowlh1lzbs4j.cloudfront.net/pat/stacked_chairs1.jpg","time_elapsed":244922,"trial_index":56,"pic":"stacked_chairs1.jpg","type":"Target","dateTime":"2021-11-13T22:30:47.351Z","isRelevant":true},{"internal_node_id":"0.0-0.0-10.0-0.9","rt":1045,"isLearning":true,"response":"y","trial_type":"image-keyboard-response","stimulus":"https://d3vowlh1lzbs4j.cloudfront.net/pat/paper_holder1.jpg","time_elapsed":247425,"trial_index":57,"pic":"paper_holder1.jpg","type":"Target","dateTime":"2021-11-13T22:30:49.854Z","isRelevant":true},{"internal_node_id":"0.0-0.0-10.0-0.10","rt":879,"isLearning":true,"response":"y","trial_type":"image-keyboard-response","stimulus":"https://d3vowlh1lzbs4j.cloudfront.net/pat/chapstick1.jpg","time_elapsed":249927,"trial_index":58,"pic":"chapstick1.jpg","type":"Target","dateTime":"2021-11-13T22:30:52.356Z","isRelevant":true},{"internal_node_id":"0.0-0.0-10.0-0.11","rt":1153,"isLearning":true,"response":"y","trial_type":"image-keyboard-response","stimulus":"https://d3vowlh1lzbs4j.cloudfront.net/pat/clothes_iron1.jpg","time_elapsed":252432,"trial_index":59,"pic":"clothes_iron1.jpg","type":"Target","dateTime":"2021-11-13T22:30:54.861Z","isRelevant":true},{"internal_node_id":"0.0-0.0-10.0-0.12","rt":735,"isLearning":true,"response":"n","trial_type":"image-keyboard-response","stimulus":"https://d3vowlh1lzbs4j.cloudfront.net/pat/dirtbug1.jpg","time_elapsed":254934,"trial_index":60,"pic":"dirtbug1.jpg","type":"Target","dateTime":"2021-11-13T22:30:57.363Z","isRelevant":true},{"internal_node_id":"0.0-0.0-10.0-0.13","rt":979,"isLearning":true,"response":"y","trial_type":"image-keyboard-response","stimulus":"https://d3vowlh1lzbs4j.cloudfront.net/pat/seahorse1.jpg","time_elapsed":257436,"trial_index":61,"pic":"seahorse1.jpg","type":"Target","dateTime":"2021-11-13T22:30:59.865Z","isRelevant":true},{"internal_node_id":"0.0-0.0-10.0-0.14","rt":1620,"isLearning":true,"response":"y","trial_type":"image-keyboard-response","stimulus":"https://d3vowlh1lzbs4j.cloudfront.net/pat/cookie_stir1.jpg","time_elapsed":259938,"trial_index":62,"pic":"cookie_stir1.jpg","type":"Target","dateTime":"2021-11-13T22:31:02.367Z","isRelevant":true},{"internal_node_id":"0.0-0.0-10.0-0.15","rt":1718,"isLearning":true,"response":"n","trial_type":"image-keyboard-response","stimulus":"https://d3vowlh1lzbs4j.cloudfront.net/pat/gold_fishy1.jpg","time_elapsed":262439,"trial_index":63,"pic":"gold_fishy1.jpg","type":"Target","dateTime":"2021-11-13T22:31:04.868Z","isRelevant":true},{"internal_node_id":"0.0-0.0-10.0-0.16","rt":1760,"isLearning":true,"response":"n","trial_type":"image-keyboard-response","stimulus":"https://d3vowlh1lzbs4j.cloudfront.net/pat/film_reel1.jpg","time_elapsed":264942,"trial_index":64,"pic":"film_reel1.jpg","type":"Target","dateTime":"2021-11-13T22:31:07.371Z","isRelevant":true},{"internal_node_id":"0.0-0.0-10.0-0.17","rt":2202,"isLearning":true,"response":"n","trial_type":"image-keyboard-response","stimulus":"https://d3vowlh1lzbs4j.cloudfront.net/pat/road_sign1.jpg","time_elapsed":267444,"trial_index":65,"pic":"road_sign1.jpg","type":"Target","dateTime":"2021-11-13T22:31:09.873Z","isRelevant":true},{"internal_node_id":"0.0-0.0-10.0-0.18","rt":1236,"isLearning":true,"response":"n","trial_type":"image-keyboard-response","stimulus":"https://d3vowlh1lzbs4j.cloudfront.net/pat/atv1.jpg","time_elapsed":269946,"trial_index":66,"pic":"atv1.jpg","type":"Target","dateTime":"2021-11-13T22:31:12.375Z","isRelevant":true},{"internal_node_id":"0.0-0.0-10.0-0.19","rt":990,"isLearning":true,"response":"n","trial_type":"image-keyboard-response","stimulus":"https://d3vowlh1lzbs4j.cloudfront.net/pat/babywalker_1.jpg","time_elapsed":272447,"trial_index":67,"pic":"babywalker_1.jpg","type":"Target","dateTime":"2021-11-13T22:31:14.877Z","isRelevant":true},{"internal_node_id":"0.0-0.0-10.0-0.20","rt":1089,"isLearning":true,"response":"y","trial_type":"image-keyboard-response","stimulus":"https://d3vowlh1lzbs4j.cloudfront.net/pat/BlowDryer_1.jpg","time_elapsed":274951,"trial_index":68,"pic":"BlowDryer_1.jpg","type":"Target","dateTime":"2021-11-13T22:31:17.380Z","isRelevant":true},{"internal_node_id":"0.0-0.0-10.0-0.21","rt":1194,"isLearning":true,"response":"y","trial_type":"image-keyboard-response","stimulus":"https://d3vowlh1lzbs4j.cloudfront.net/pat/duct_tape1.jpg","time_elapsed":277452,"trial_index":69,"pic":"duct_tape1.jpg","type":"Target","dateTime":"2021-11-13T22:31:19.881Z","isRelevant":true},{"internal_node_id":"0.0-0.0-10.0-0.22","rt":1213,"isLearning":true,"response":"y","trial_type":"image-keyboard-response","stimulus":"https://d3vowlh1lzbs4j.cloudfront.net/pat/dreidel1.jpg","time_elapsed":279954,"trial_index":70,"pic":"dreidel1.jpg","type":"Target","dateTime":"2021-11-13T22:31:22.383Z","isRelevant":true},{"internal_node_id":"0.0-0.0-10.0-0.23","rt":1358,"isLearning":true,"response":"y","trial_type":"image-keyboard-response","stimulus":"https://d3vowlh1lzbs4j.cloudfront.net/pat/menorah1.jpg","time_elapsed":282456,"trial_index":71,"pic":"menorah1.jpg","type":"Target","dateTime":"2021-11-13T22:31:24.885Z","isRelevant":true},{"internal_node_id":"0.0-0.0-10.0-0.24","rt":1729,"isLearning":true,"response":"y","trial_type":"image-keyboard-response","stimulus":"https://d3vowlh1lzbs4j.cloudfront.net/pat/present_box1.jpg","time_elapsed":284958,"trial_index":72,"pic":"present_box1.jpg","type":"Target","dateTime":"2021-11-13T22:31:27.387Z","isRelevant":true},{"internal_node_id":"0.0-0.0-10.0-0.25","rt":1922,"isLearning":true,"response":"y","trial_type":"image-keyboard-response","stimulus":"https://d3vowlh1lzbs4j.cloudfront.net/pat/Markers_1.jpg","time_elapsed":287460,"trial_index":73,"pic":"Markers_1.jpg","type":"Target","dateTime":"2021-11-13T22:31:29.889Z","isRelevant":true},{"internal_node_id":"0.0-0.0-10.0-0.26","rt":1124,"isLearning":true,"response":"y","trial_type":"image-keyboard-response","stimulus":"https://d3vowlh1lzbs4j.cloudfront.net/pat/altoids1.jpg","time_elapsed":289962,"trial_index":74,"pic":"altoids1.jpg","type":"Target","dateTime":"2021-11-13T22:31:32.391Z","isRelevant":true},{"internal_node_id":"0.0-0.0-10.0-0.27","rt":878,"isLearning":true,"response":"n","trial_type":"image-keyboard-response","stimulus":"https://d3vowlh1lzbs4j.cloudfront.net/pat/Canoe_1.jpg","time_elapsed":292467,"trial_index":75,"pic":"Canoe_1.jpg","type":"Target","dateTime":"2021-11-13T22:31:34.896Z","isRelevant":true},{"internal_node_id":"0.0-0.0-10.0-0.28","rt":1141,"isLearning":true,"response":"y","trial_type":"image-keyboard-response","stimulus":"https://d3vowlh1lzbs4j.cloudfront.net/pat/books1.jpg","time_elapsed":294969,"trial_index":76,"pic":"books1.jpg","type":"Target","dateTime":"2021-11-13T22:31:37.398Z","isRelevant":true},{"internal_node_id":"0.0-0.0-10.0-0.29","rt":1168,"isLearning":true,"response":"n","trial_type":"image-keyboard-response","stimulus":"https://d3vowlh1lzbs4j.cloudfront.net/pat/deep_fryer1.jpg","time_elapsed":297471,"trial_index":77,"pic":"deep_fryer1.jpg","type":"Target","dateTime":"2021-11-13T22:31:39.900Z","isRelevant":true},{"ua":"Mozilla/5.0 (Macintosh; Intel Mac OS X 10.15; rv:94.0) Gecko/20100101 Firefox/94.0","dateTime":"2021-11-13T22:31:39.901Z","isRelevant":false},{"taskStarted":true,"dateTime":"2021-11-17T05:08:13.602Z","isRelevant":false},{"internal_node_id":"0.0-0.0-1.0","success":true,"trial_type":"preload","failed_images":[],"time_elapsed":371,"trial_index":0,"failed_audio":[],"failed_video":[],"timeout":false,"dateTime":"2021-11-17T05:08:13.974Z","isRelevant":false},{"internal_node_id":"0.0-0.0-2.0","rt":26751,"response":" ","trial_type":"html-keyboard-response","stimulus":"<h2>Pattern Separation Task</h2> <p> You are about to start a new task. In this task, you will be asked to view a series of common objects and remember them for a later memory test. While you view each item, please answer yes or no to the following questions: </p> Will the object fit inside a lady’s medium shoe box?<br/> Can you carry the object across the room using only your right hand?<br/> <p> Before we begin the actual task, let’s try a few practice trials. </p> <em>Press the space bar to continue</em>","time_elapsed":27126,"trial_index":1,"dateTime":"2021-11-17T05:08:40.728Z","isRelevant":false},{"internal_node_id":"0.0-0.0-3.0","rt":12654,"response":" ","trial_type":"html-keyboard-response","stimulus":"<h2>Pattern Separation Task</h2> <p> In the practice trials, you will see 4 items twice. Please answer the question presented underneath the item by pressing \"y\" for \"yes\" or \"n\" for \"no\" as well as trying to remember them for a later memory test. </p> <em>Press the space bar to continue</em> ","time_elapsed":39782,"trial_index":2,"dateTime":"2021-11-17T05:08:53.384Z","isRelevant":false},{"internal_node_id":"0.0-0.0-4.0-0.0","rt":null,"isLearning":true,"isPractice":true,"response":null,"trial_type":"image-keyboard-response","stimulus":"https://d3vowlh1lzbs4j.cloudfront.net/pat/violin1.jpg","time_elapsed":42284,"trial_index":3,"pic":"violin1.jpg","type":"Target","dateTime":"2021-11-17T05:08:55.886Z","isRelevant":true},{"internal_node_id":"0.0-0.0-4.0-1.0-0.0","rt":null,"response":null,"trial_type":"html-keyboard-response","stimulus":"Answer faster next time","time_elapsed":43089,"trial_index":4,"dateTime":"2021-11-17T05:08:56.691Z","isRelevant":false},{"internal_node_id":"0.0-0.0-4.0-0.1","rt":194,"isLearning":true,"isPractice":true,"response":"n","trial_type":"image-keyboard-response","stimulus":"https://d3vowlh1lzbs4j.cloudfront.net/pat/Wagon_1.jpg","time_elapsed":45591,"trial_index":5,"pic":"Wagon_1.jpg","type":"Target","dateTime":"2021-11-17T05:08:59.193Z","isRelevant":true},{"internal_node_id":"0.0-0.0-4.0-0.2","rt":581,"isLearning":true,"isPractice":true,"response":"n","trial_type":"image-keyboard-response","stimulus":"https://d3vowlh1lzbs4j.cloudfront.net/pat/waffle_maker1.jpg","time_elapsed":48096,"trial_index":6,"pic":"waffle_maker1.jpg","type":"Target","dateTime":"2021-11-17T05:09:01.698Z","isRelevant":true},{"internal_node_id":"0.0-0.0-4.0-0.3","rt":1157,"isLearning":true,"isPractice":true,"response":"n","trial_type":"image-keyboard-response","stimulus":"https://d3vowlh1lzbs4j.cloudfront.net/pat/typewritter1.jpg","time_elapsed":50598,"trial_index":7,"pic":"typewritter1.jpg","type":"Target","dateTime":"2021-11-17T05:09:04.200Z","isRelevant":true},{"internal_node_id":"0.0-0.0-5.0-0.0","rt":null,"isLearning":true,"isPractice":true,"response":null,"trial_type":"image-keyboard-response","stimulus":"https://d3vowlh1lzbs4j.cloudfront.net/pat/violin1.jpg","time_elapsed":53100,"trial_index":8,"pic":"violin1.jpg","type":"Target","dateTime":"2021-11-17T05:09:06.703Z","isRelevant":true},{"internal_node_id":"0.0-0.0-5.0-1.0-0.0","rt":null,"response":null,"trial_type":"html-keyboard-response","stimulus":"Answer faster next time","time_elapsed":53904,"trial_index":9,"dateTime":"2021-11-17T05:09:07.506Z","isRelevant":false},{"internal_node_id":"0.0-0.0-5.0-0.1","rt":2453,"isLearning":true,"isPractice":true,"response":"y","trial_type":"image-keyboard-response","stimulus":"https://d3vowlh1lzbs4j.cloudfront.net/pat/Wagon_1.jpg","time_elapsed":56406,"trial_index":10,"pic":"Wagon_1.jpg","type":"Target","dateTime":"2021-11-17T05:09:10.008Z","isRelevant":true},{"internal_node_id":"0.0-0.0-5.0-0.2","rt":null,"isLearning":true,"isPractice":true,"response":null,"trial_type":"image-keyboard-response","stimulus":"https://d3vowlh1lzbs4j.cloudfront.net/pat/waffle_maker1.jpg","time_elapsed":58908,"trial_index":11,"pic":"waffle_maker1.jpg","type":"Target","dateTime":"2021-11-17T05:09:12.510Z","isRelevant":true},{"internal_node_id":"0.0-0.0-5.0-1.2-0.2","rt":null,"response":null,"trial_type":"html-keyboard-response","stimulus":"Answer faster next time","time_elapsed":59712,"trial_index":12,"dateTime":"2021-11-17T05:09:13.314Z","isRelevant":false},{"internal_node_id":"0.0-0.0-5.0-0.3","rt":1540,"isLearning":true,"isPractice":true,"response":"y","trial_type":"image-keyboard-response","stimulus":"https://d3vowlh1lzbs4j.cloudfront.net/pat/typewritter1.jpg","time_elapsed":62214,"trial_index":13,"pic":"typewritter1.jpg","type":"Target","dateTime":"2021-11-17T05:09:15.816Z","isRelevant":true},{"internal_node_id":"0.0-0.0-6.0","rt":12752,"response":" ","trial_type":"html-keyboard-response","stimulus":"<h2>Pattern Separation Task</h2> <p> You will be tested on your memory for the objects you saw earlier. Please indicate whether each item is 1 = definitely old, 2 = maybe old, 3 = maybe new, or 4 = definitely new. “Definitely old” means you are confident that you saw the object. “Maybe old” means that you think you saw the object, but not completely sure.   ”Maybe new” means that you don’t think you saw the object, but not completely sure. “Definitely new” means you are confident that you did not see the object. </p> <em>Press the space bar to continue</em> ","time_elapsed":74968,"trial_index":14,"dateTime":"2021-11-17T05:09:28.570Z","isRelevant":false},{"internal_node_id":"0.0-0.0-7.0-0.0","rt":1725,"isPractice":true,"response":"1","trial_type":"image-keyboard-response","stimulus":"https://d3vowlh1lzbs4j.cloudfront.net/pat/violin1.jpg","time_elapsed":76695,"isRecall":true,"trial_index":15,"pic":"violin1.jpg","type":"Target","dateTime":"2021-11-17T05:09:30.297Z","isRelevant":true},{"internal_node_id":"0.0-0.0-7.0-0.1","rt":1430,"isPractice":true,"response":"1","trial_type":"image-keyboard-response","stimulus":"https://d3vowlh1lzbs4j.cloudfront.net/pat/waffle_maker1.jpg","time_elapsed":78127,"isRecall":true,"trial_index":16,"pic":"waffle_maker1.jpg","type":"Target","dateTime":"2021-11-17T05:09:31.730Z","isRelevant":true},{"internal_node_id":"0.0-0.0-7.0-0.2","rt":1182,"isPractice":true,"response":"1","trial_type":"image-keyboard-response","stimulus":"https://d3vowlh1lzbs4j.cloudfront.net/pat/Wagon_1.jpg","time_elapsed":79311,"isRecall":true,"trial_index":17,"pic":"Wagon_1.jpg","type":"Target","dateTime":"2021-11-17T05:09:32.913Z","isRelevant":true},{"internal_node_id":"0.0-0.0-7.0-0.3","rt":1230,"isPractice":true,"response":"1","trial_type":"image-keyboard-response","stimulus":"https://d3vowlh1lzbs4j.cloudfront.net/pat/typewritter1.jpg","time_elapsed":80543,"isRecall":true,"trial_index":18,"pic":"typewritter1.jpg","type":"Target","dateTime":"2021-11-17T05:09:34.145Z","isRelevant":true},{"internal_node_id":"0.0-0.0-8.0","rt":7480,"response":" ","trial_type":"html-keyboard-response","stimulus":"<h2>Pattern Separation Task</h2> <p> We will begin the actual task. You will see 30 items. Please answer the question presented underneath the item as well as trying to remember them for a later memory test. Please note that the memory test will be given 30 minutes after this viewing session. </p> <em>Press the space bar to continue</em> ","time_elapsed":88023,"trial_index":19,"dateTime":"2021-11-17T05:09:41.625Z","isRelevant":false},{"internal_node_id":"0.0-0.0-9.0-0.0","rt":2494,"isLearning":true,"response":"n","trial_type":"image-keyboard-response","stimulus":"https://d3vowlh1lzbs4j.cloudfront.net/pat/drum1.jpg","time_elapsed":90525,"trial_index":20,"pic":"drum1.jpg","type":"Target","dateTime":"2021-11-17T05:09:44.127Z","isRelevant":true},{"internal_node_id":"0.0-0.0-9.0-0.1","rt":1512,"isLearning":true,"response":"y","trial_type":"image-keyboard-response","stimulus":"https://d3vowlh1lzbs4j.cloudfront.net/pat/gold_watch1.jpg","time_elapsed":93028,"trial_index":21,"pic":"gold_watch1.jpg","type":"Target","dateTime":"2021-11-17T05:09:46.630Z","isRelevant":true},{"internal_node_id":"0.0-0.0-9.0-0.2","rt":1881,"isLearning":true,"response":"y","trial_type":"image-keyboard-response","stimulus":"https://d3vowlh1lzbs4j.cloudfront.net/pat/dishes1.jpg","time_elapsed":95530,"trial_index":22,"pic":"dishes1.jpg","type":"Target","dateTime":"2021-11-17T05:09:49.132Z","isRelevant":true},{"internal_node_id":"0.0-0.0-9.0-0.3","rt":1524,"isLearning":true,"response":"y","trial_type":"image-keyboard-response","stimulus":"https://d3vowlh1lzbs4j.cloudfront.net/pat/plate_teacup1.jpg","time_elapsed":98036,"trial_index":23,"pic":"plate_teacup1.jpg","type":"Target","dateTime":"2021-11-17T05:09:51.638Z","isRelevant":true},{"internal_node_id":"0.0-0.0-9.0-0.4","rt":1778,"isLearning":true,"response":"y","trial_type":"image-keyboard-response","stimulus":"https://d3vowlh1lzbs4j.cloudfront.net/pat/metronome1.jpg","time_elapsed":100539,"trial_index":24,"pic":"metronome1.jpg","type":"Target","dateTime":"2021-11-17T05:09:54.141Z","isRelevant":true},{"internal_node_id":"0.0-0.0-9.0-0.5","rt":1315,"isLearning":true,"response":"y","trial_type":"image-keyboard-response","stimulus":"https://d3vowlh1lzbs4j.cloudfront.net/pat/elem_scissors1.jpg","time_elapsed":103043,"trial_index":25,"pic":"elem_scissors1.jpg","type":"Target","dateTime":"2021-11-17T05:09:56.645Z","isRelevant":true},{"internal_node_id":"0.0-0.0-9.0-0.6","rt":1660,"isLearning":true,"response":"n","trial_type":"image-keyboard-response","stimulus":"https://d3vowlh1lzbs4j.cloudfront.net/pat/foam_toys1.jpg","time_elapsed":105549,"trial_index":26,"pic":"foam_toys1.jpg","type":"Target","dateTime":"2021-11-17T05:09:59.151Z","isRelevant":true},{"internal_node_id":"0.0-0.0-9.0-0.7","rt":null,"isLearning":true,"response":null,"trial_type":"image-keyboard-response","stimulus":"https://d3vowlh1lzbs4j.cloudfront.net/pat/accordian1.jpg","time_elapsed":108053,"trial_index":27,"pic":"accordian1.jpg","type":"Target","dateTime":"2021-11-17T05:10:01.655Z","isRelevant":true},{"internal_node_id":"0.0-0.0-9.0-1.7-0.7","rt":null,"response":null,"trial_type":"html-keyboard-response","stimulus":"Answer faster next time","time_elapsed":108857,"trial_index":28,"dateTime":"2021-11-17T05:10:02.459Z","isRelevant":false},{"internal_node_id":"0.0-0.0-9.0-0.8","rt":1802,"isLearning":true,"response":"n","trial_type":"image-keyboard-response","stimulus":"https://d3vowlh1lzbs4j.cloudfront.net/pat/antique_phone1.jpg","time_elapsed":111360,"trial_index":29,"pic":"antique_phone1.jpg","type":"Target","dateTime":"2021-11-17T05:10:04.963Z","isRelevant":true},{"internal_node_id":"0.0-0.0-9.0-0.9","rt":1500,"isLearning":true,"response":"y","trial_type":"image-keyboard-response","stimulus":"https://d3vowlh1lzbs4j.cloudfront.net/pat/comp_mouse1.jpg","time_elapsed":113863,"trial_index":30,"pic":"comp_mouse1.jpg","type":"Target","dateTime":"2021-11-17T05:10:07.465Z","isRelevant":true},{"internal_node_id":"0.0-0.0-9.0-0.10","rt":1886,"isLearning":true,"response":"y","trial_type":"image-keyboard-response","stimulus":"https://d3vowlh1lzbs4j.cloudfront.net/pat/firetruck_toy1.jpg","time_elapsed":116365,"trial_index":31,"pic":"firetruck_toy1.jpg","type":"Target","dateTime":"2021-11-17T05:10:09.967Z","isRelevant":true},{"internal_node_id":"0.0-0.0-9.0-0.11","rt":1800,"isLearning":true,"response":"y","trial_type":"image-keyboard-response","stimulus":"https://d3vowlh1lzbs4j.cloudfront.net/pat/cable_divide1.jpg","time_elapsed":118871,"trial_index":32,"pic":"cable_divide1.jpg","type":"Target","dateTime":"2021-11-17T05:10:12.473Z","isRelevant":true},{"internal_node_id":"0.0-0.0-9.0-0.12","rt":1582,"isLearning":true,"response":"n","trial_type":"image-keyboard-response","stimulus":"https://d3vowlh1lzbs4j.cloudfront.net/pat/kermitthefrog1.jpg","time_elapsed":121374,"trial_index":33,"pic":"kermitthefrog1.jpg","type":"Target","dateTime":"2021-11-17T05:10:14.976Z","isRelevant":true},{"internal_node_id":"0.0-0.0-9.0-0.13","rt":1298,"isLearning":true,"response":"n","trial_type":"image-keyboard-response","stimulus":"https://d3vowlh1lzbs4j.cloudfront.net/pat/patio_table1.jpg","time_elapsed":123876,"trial_index":34,"pic":"patio_table1.jpg","type":"Target","dateTime":"2021-11-17T05:10:17.478Z","isRelevant":true},{"internal_node_id":"0.0-0.0-9.0-0.14","rt":1186,"isLearning":true,"response":"y","trial_type":"image-keyboard-response","stimulus":"https://d3vowlh1lzbs4j.cloudfront.net/pat/blue_gloves1.jpg","time_elapsed":126379,"trial_index":35,"pic":"blue_gloves1.jpg","type":"Target","dateTime":"2021-11-17T05:10:19.981Z","isRelevant":true},{"internal_node_id":"0.0-0.0-9.0-0.15","rt":1620,"isLearning":true,"response":"y","trial_type":"image-keyboard-response","stimulus":"https://d3vowlh1lzbs4j.cloudfront.net/pat/skull_alligator1.jpg","time_elapsed":128881,"trial_index":36,"pic":"skull_alligator1.jpg","type":"Target","dateTime":"2021-11-17T05:10:22.483Z","isRelevant":true},{"internal_node_id":"0.0-0.0-9.0-0.16","rt":1439,"isLearning":true,"response":"n","trial_type":"image-keyboard-response","stimulus":"https://d3vowlh1lzbs4j.cloudfront.net/pat/life_jacket1.jpg","time_elapsed":131383,"trial_index":37,"pic":"life_jacket1.jpg","type":"Target","dateTime":"2021-11-17T05:10:24.986Z","isRelevant":true},{"internal_node_id":"0.0-0.0-9.0-0.17","rt":1592,"isLearning":true,"response":"n","trial_type":"image-keyboard-response","stimulus":"https://d3vowlh1lzbs4j.cloudfront.net/pat/oil_barrel1.jpg","time_elapsed":133885,"trial_index":38,"pic":"oil_barrel1.jpg","type":"Target","dateTime":"2021-11-17T05:10:27.487Z","isRelevant":true},{"internal_node_id":"0.0-0.0-9.0-0.18","rt":1307,"isLearning":true,"response":"y","trial_type":"image-keyboard-response","stimulus":"https://d3vowlh1lzbs4j.cloudfront.net/pat/highlighter_pink1.jpg","time_elapsed":136389,"trial_index":39,"pic":"highlighter_pink1.jpg","type":"Target","dateTime":"2021-11-17T05:10:29.991Z","isRelevant":true},{"internal_node_id":"0.0-0.0-9.0-0.19","rt":1796,"isLearning":true,"response":"y","trial_type":"image-keyboard-response","stimulus":"https://d3vowlh1lzbs4j.cloudfront.net/pat/Bell_1.jpg","time_elapsed":138892,"trial_index":40,"pic":"Bell_1.jpg","type":"Target","dateTime":"2021-11-17T05:10:32.494Z","isRelevant":true},{"internal_node_id":"0.0-0.0-9.0-0.20","rt":1475,"isLearning":true,"response":"y","trial_type":"image-keyboard-response","stimulus":"https://d3vowlh1lzbs4j.cloudfront.net/pat/brown_towel1.jpg","time_elapsed":141395,"trial_index":41,"pic":"brown_towel1.jpg","type":"Target","dateTime":"2021-11-17T05:10:34.997Z","isRelevant":true},{"internal_node_id":"0.0-0.0-9.0-0.21","rt":1495,"isLearning":true,"response":"n","trial_type":"image-keyboard-response","stimulus":"https://d3vowlh1lzbs4j.cloudfront.net/pat/baby_stroller1.jpg","time_elapsed":143900,"trial_index":42,"pic":"baby_stroller1.jpg","type":"Target","dateTime":"2021-11-17T05:10:37.502Z","isRelevant":true},{"internal_node_id":"0.0-0.0-9.0-0.22","rt":1550,"isLearning":true,"response":"n","trial_type":"image-keyboard-response","stimulus":"https://d3vowlh1lzbs4j.cloudfront.net/pat/scanner1.jpg","time_elapsed":146402,"trial_index":43,"pic":"scanner1.jpg","type":"Target","dateTime":"2021-11-17T05:10:40.004Z","isRelevant":true},{"internal_node_id":"0.0-0.0-9.0-0.23","rt":1185,"isLearning":true,"response":"n","trial_type":"image-keyboard-response","stimulus":"https://d3vowlh1lzbs4j.cloudfront.net/pat/desk_phone1.jpg","time_elapsed":148907,"trial_index":44,"pic":"desk_phone1.jpg","type":"Target","dateTime":"2021-11-17T05:10:42.509Z","isRelevant":true},{"internal_node_id":"0.0-0.0-9.0-0.24","rt":1319,"isLearning":true,"response":"n","trial_type":"image-keyboard-response","stimulus":"https://d3vowlh1lzbs4j.cloudfront.net/pat/really_green_jacket1.jpg","time_elapsed":151410,"trial_index":45,"pic":"really_green_jacket1.jpg","type":"Target","dateTime":"2021-11-17T05:10:45.012Z","isRelevant":true},{"internal_node_id":"0.0-0.0-9.0-0.25","rt":2193,"isLearning":true,"response":"n","trial_type":"image-keyboard-response","stimulus":"https://d3vowlh1lzbs4j.cloudfront.net/pat/cowboy_boot1.jpg","time_elapsed":153912,"trial_index":46,"pic":"cowboy_boot1.jpg","type":"Target","dateTime":"2021-11-17T05:10:47.514Z","isRelevant":true},{"internal_node_id":"0.0-0.0-9.0-0.26","rt":1347,"isLearning":true,"response":"n","trial_type":"image-keyboard-response","stimulus":"https://d3vowlh1lzbs4j.cloudfront.net/pat/box_cookies1.jpg","time_elapsed":156414,"trial_index":47,"pic":"box_cookies1.jpg","type":"Target","dateTime":"2021-11-17T05:10:50.016Z","isRelevant":true},{"internal_node_id":"0.0-0.0-9.0-0.27","rt":1717,"isLearning":true,"response":"n","trial_type":"image-keyboard-response","stimulus":"https://d3vowlh1lzbs4j.cloudfront.net/pat/coffee_grinder1.jpg","time_elapsed":158916,"trial_index":48,"pic":"coffee_grinder1.jpg","type":"Target","dateTime":"2021-11-17T05:10:52.518Z","isRelevant":true},{"internal_node_id":"0.0-0.0-9.0-0.28","rt":1343,"isLearning":true,"response":"n","trial_type":"image-keyboard-response","stimulus":"https://d3vowlh1lzbs4j.cloudfront.net/pat/carton1.jpg","time_elapsed":161420,"trial_index":49,"pic":"carton1.jpg","type":"Target","dateTime":"2021-11-17T05:10:55.023Z","isRelevant":true},{"internal_node_id":"0.0-0.0-9.0-0.29","rt":1182,"isLearning":true,"response":"n","trial_type":"image-keyboard-response","stimulus":"https://d3vowlh1lzbs4j.cloudfront.net/pat/chowchow_dog1.jpg","time_elapsed":163922,"trial_index":50,"pic":"chowchow_dog1.jpg","type":"Target","dateTime":"2021-11-17T05:10:57.524Z","isRelevant":true},{"internal_node_id":"0.0-0.0-10.0-0.0","rt":2169,"isLearning":true,"response":"n","trial_type":"image-keyboard-response","stimulus":"https://d3vowlh1lzbs4j.cloudfront.net/pat/drum1.jpg","time_elapsed":166424,"trial_index":51,"pic":"drum1.jpg","type":"Target","dateTime":"2021-11-17T05:11:00.027Z","isRelevant":true},{"internal_node_id":"0.0-0.0-10.0-0.1","rt":1402,"isLearning":true,"response":"y","trial_type":"image-keyboard-response","stimulus":"https://d3vowlh1lzbs4j.cloudfront.net/pat/gold_watch1.jpg","time_elapsed":168927,"trial_index":52,"pic":"gold_watch1.jpg","type":"Target","dateTime":"2021-11-17T05:11:02.529Z","isRelevant":true},{"internal_node_id":"0.0-0.0-10.0-0.2","rt":1740,"isLearning":true,"response":"y","trial_type":"image-keyboard-response","stimulus":"https://d3vowlh1lzbs4j.cloudfront.net/pat/dishes1.jpg","time_elapsed":171428,"trial_index":53,"pic":"dishes1.jpg","type":"Target","dateTime":"2021-11-17T05:11:05.030Z","isRelevant":true},{"internal_node_id":"0.0-0.0-10.0-0.3","rt":1647,"isLearning":true,"response":"y","trial_type":"image-keyboard-response","stimulus":"https://d3vowlh1lzbs4j.cloudfront.net/pat/plate_teacup1.jpg","time_elapsed":173931,"trial_index":54,"pic":"plate_teacup1.jpg","type":"Target","dateTime":"2021-11-17T05:11:07.533Z","isRelevant":true},{"internal_node_id":"0.0-0.0-10.0-0.4","rt":1672,"isLearning":true,"response":"y","trial_type":"image-keyboard-response","stimulus":"https://d3vowlh1lzbs4j.cloudfront.net/pat/metronome1.jpg","time_elapsed":176433,"trial_index":55,"pic":"metronome1.jpg","type":"Target","dateTime":"2021-11-17T05:11:10.035Z","isRelevant":true},{"internal_node_id":"0.0-0.0-10.0-0.5","rt":1722,"isLearning":true,"response":"y","trial_type":"image-keyboard-response","stimulus":"https://d3vowlh1lzbs4j.cloudfront.net/pat/elem_scissors1.jpg","time_elapsed":178938,"trial_index":56,"pic":"elem_scissors1.jpg","type":"Target","dateTime":"2021-11-17T05:11:12.540Z","isRelevant":true},{"internal_node_id":"0.0-0.0-10.0-0.6","rt":1897,"isLearning":true,"response":"y","trial_type":"image-keyboard-response","stimulus":"https://d3vowlh1lzbs4j.cloudfront.net/pat/foam_toys1.jpg","time_elapsed":181440,"trial_index":57,"pic":"foam_toys1.jpg","type":"Target","dateTime":"2021-11-17T05:11:15.042Z","isRelevant":true},{"internal_node_id":"0.0-0.0-10.0-0.7","rt":1780,"isLearning":true,"response":"n","trial_type":"image-keyboard-response","stimulus":"https://d3vowlh1lzbs4j.cloudfront.net/pat/accordian1.jpg","time_elapsed":183942,"trial_index":58,"pic":"accordian1.jpg","type":"Target","dateTime":"2021-11-17T05:11:17.544Z","isRelevant":true},{"internal_node_id":"0.0-0.0-10.0-0.8","rt":1614,"isLearning":true,"response":"y","trial_type":"image-keyboard-response","stimulus":"https://d3vowlh1lzbs4j.cloudfront.net/pat/antique_phone1.jpg","time_elapsed":186444,"trial_index":59,"pic":"antique_phone1.jpg","type":"Target","dateTime":"2021-11-17T05:11:20.046Z","isRelevant":true},{"internal_node_id":"0.0-0.0-10.0-0.9","rt":1135,"isLearning":true,"response":"y","trial_type":"image-keyboard-response","stimulus":"https://d3vowlh1lzbs4j.cloudfront.net/pat/comp_mouse1.jpg","time_elapsed":188946,"trial_index":60,"pic":"comp_mouse1.jpg","type":"Target","dateTime":"2021-11-17T05:11:22.548Z","isRelevant":true},{"internal_node_id":"0.0-0.0-10.0-0.10","rt":1370,"isLearning":true,"response":"y","trial_type":"image-keyboard-response","stimulus":"https://d3vowlh1lzbs4j.cloudfront.net/pat/firetruck_toy1.jpg","time_elapsed":191447,"trial_index":61,"pic":"firetruck_toy1.jpg","type":"Target","dateTime":"2021-11-17T05:11:25.050Z","isRelevant":true},{"internal_node_id":"0.0-0.0-10.0-0.11","rt":1003,"isLearning":true,"response":"y","trial_type":"image-keyboard-response","stimulus":"https://d3vowlh1lzbs4j.cloudfront.net/pat/cable_divide1.jpg","time_elapsed":193950,"trial_index":62,"pic":"cable_divide1.jpg","type":"Target","dateTime":"2021-11-17T05:11:27.552Z","isRelevant":true},{"internal_node_id":"0.0-0.0-10.0-0.12","rt":1558,"isLearning":true,"response":"n","trial_type":"image-keyboard-response","stimulus":"https://d3vowlh1lzbs4j.cloudfront.net/pat/kermitthefrog1.jpg","time_elapsed":196452,"trial_index":63,"pic":"kermitthefrog1.jpg","type":"Target","dateTime":"2021-11-17T05:11:30.054Z","isRelevant":true},{"internal_node_id":"0.0-0.0-10.0-0.13","rt":1097,"isLearning":true,"response":"n","trial_type":"image-keyboard-response","stimulus":"https://d3vowlh1lzbs4j.cloudfront.net/pat/patio_table1.jpg","time_elapsed":198954,"trial_index":64,"pic":"patio_table1.jpg","type":"Target","dateTime":"2021-11-17T05:11:32.556Z","isRelevant":true},{"internal_node_id":"0.0-0.0-10.0-0.14","rt":1881,"isLearning":true,"response":"y","trial_type":"image-keyboard-response","stimulus":"https://d3vowlh1lzbs4j.cloudfront.net/pat/blue_gloves1.jpg","time_elapsed":201456,"trial_index":65,"pic":"blue_gloves1.jpg","type":"Target","dateTime":"2021-11-17T05:11:35.058Z","isRelevant":true},{"internal_node_id":"0.0-0.0-10.0-0.15","rt":null,"isLearning":true,"response":null,"trial_type":"image-keyboard-response","stimulus":"https://d3vowlh1lzbs4j.cloudfront.net/pat/skull_alligator1.jpg","time_elapsed":203958,"trial_index":66,"pic":"skull_alligator1.jpg","type":"Target","dateTime":"2021-11-17T05:11:37.560Z","isRelevant":true},{"internal_node_id":"0.0-0.0-10.0-1.15-0.15","rt":null,"response":null,"trial_type":"html-keyboard-response","stimulus":"Answer faster next time","time_elapsed":204760,"trial_index":67,"dateTime":"2021-11-17T05:11:38.362Z","isRelevant":false},{"internal_node_id":"0.0-0.0-10.0-0.16","rt":1069,"isLearning":true,"response":"y","trial_type":"image-keyboard-response","stimulus":"https://d3vowlh1lzbs4j.cloudfront.net/pat/life_jacket1.jpg","time_elapsed":207261,"trial_index":68,"pic":"life_jacket1.jpg","type":"Target","dateTime":"2021-11-17T05:11:40.863Z","isRelevant":true},{"internal_node_id":"0.0-0.0-10.0-0.17","rt":1815,"isLearning":true,"response":"n","trial_type":"image-keyboard-response","stimulus":"https://d3vowlh1lzbs4j.cloudfront.net/pat/oil_barrel1.jpg","time_elapsed":209763,"trial_index":69,"pic":"oil_barrel1.jpg","type":"Target","dateTime":"2021-11-17T05:11:43.366Z","isRelevant":true},{"internal_node_id":"0.0-0.0-10.0-0.18","rt":994,"isLearning":true,"response":"y","trial_type":"image-keyboard-response","stimulus":"https://d3vowlh1lzbs4j.cloudfront.net/pat/highlighter_pink1.jpg","time_elapsed":212265,"trial_index":70,"pic":"highlighter_pink1.jpg","type":"Target","dateTime":"2021-11-17T05:11:45.867Z","isRelevant":true},{"internal_node_id":"0.0-0.0-10.0-0.19","rt":828,"isLearning":true,"response":"y","trial_type":"image-keyboard-response","stimulus":"https://d3vowlh1lzbs4j.cloudfront.net/pat/Bell_1.jpg","time_elapsed":214770,"trial_index":71,"pic":"Bell_1.jpg","type":"Target","dateTime":"2021-11-17T05:11:48.372Z","isRelevant":true},{"internal_node_id":"0.0-0.0-10.0-0.20","rt":770,"isLearning":true,"response":"y","trial_type":"image-keyboard-response","stimulus":"https://d3vowlh1lzbs4j.cloudfront.net/pat/brown_towel1.jpg","time_elapsed":217272,"trial_index":72,"pic":"brown_towel1.jpg","type":"Target","dateTime":"2021-11-17T05:11:50.874Z","isRelevant":true},{"internal_node_id":"0.0-0.0-10.0-0.21","rt":892,"isLearning":true,"response":"y","trial_type":"image-keyboard-response","stimulus":"https://d3vowlh1lzbs4j.cloudfront.net/pat/baby_stroller1.jpg","time_elapsed":219777,"trial_index":73,"pic":"baby_stroller1.jpg","type":"Target","dateTime":"2021-11-17T05:11:53.379Z","isRelevant":true},{"internal_node_id":"0.0-0.0-10.0-0.22","rt":731,"isLearning":true,"response":"y","trial_type":"image-keyboard-response","stimulus":"https://d3vowlh1lzbs4j.cloudfront.net/pat/scanner1.jpg","time_elapsed":222279,"trial_index":74,"pic":"scanner1.jpg","type":"Target","dateTime":"2021-11-17T05:11:55.881Z","isRelevant":true},{"internal_node_id":"0.0-0.0-10.0-0.23","rt":1021,"isLearning":true,"response":"y","trial_type":"image-keyboard-response","stimulus":"https://d3vowlh1lzbs4j.cloudfront.net/pat/desk_phone1.jpg","time_elapsed":224782,"trial_index":75,"pic":"desk_phone1.jpg","type":"Target","dateTime":"2021-11-17T05:11:58.384Z","isRelevant":true},{"internal_node_id":"0.0-0.0-10.0-0.24","rt":687,"isLearning":true,"response":"y","trial_type":"image-keyboard-response","stimulus":"https://d3vowlh1lzbs4j.cloudfront.net/pat/really_green_jacket1.jpg","time_elapsed":227283,"trial_index":76,"pic":"really_green_jacket1.jpg","type":"Target","dateTime":"2021-11-17T05:12:00.885Z","isRelevant":true},{"internal_node_id":"0.0-0.0-10.0-0.25","rt":1027,"isLearning":true,"response":"y","trial_type":"image-keyboard-response","stimulus":"https://d3vowlh1lzbs4j.cloudfront.net/pat/cowboy_boot1.jpg","time_elapsed":229786,"trial_index":77,"pic":"cowboy_boot1.jpg","type":"Target","dateTime":"2021-11-17T05:12:03.388Z","isRelevant":true},{"internal_node_id":"0.0-0.0-10.0-0.26","rt":1500,"isLearning":true,"response":"y","trial_type":"image-keyboard-response","stimulus":"https://d3vowlh1lzbs4j.cloudfront.net/pat/box_cookies1.jpg","time_elapsed":232287,"trial_index":78,"pic":"box_cookies1.jpg","type":"Target","dateTime":"2021-11-17T05:12:05.889Z","isRelevant":true},{"internal_node_id":"0.0-0.0-10.0-0.27","rt":1726,"isLearning":true,"response":"y","trial_type":"image-keyboard-response","stimulus":"https://d3vowlh1lzbs4j.cloudfront.net/pat/coffee_grinder1.jpg","time_elapsed":234788,"trial_index":79,"pic":"coffee_grinder1.jpg","type":"Target","dateTime":"2021-11-17T05:12:08.390Z","isRelevant":true},{"internal_node_id":"0.0-0.0-10.0-0.28","rt":777,"isLearning":true,"response":"y","trial_type":"image-keyboard-response","stimulus":"https://d3vowlh1lzbs4j.cloudfront.net/pat/carton1.jpg","time_elapsed":237291,"trial_index":80,"pic":"carton1.jpg","type":"Target","dateTime":"2021-11-17T05:12:10.893Z","isRelevant":true},{"internal_node_id":"0.0-0.0-10.0-0.29","rt":1753,"isLearning":true,"response":"y","trial_type":"image-keyboard-response","stimulus":"https://d3vowlh1lzbs4j.cloudfront.net/pat/chowchow_dog1.jpg","time_elapsed":239796,"trial_index":81,"pic":"chowchow_dog1.jpg","type":"Target","dateTime":"2021-11-17T05:12:13.398Z","isRelevant":true},{"ua":"Mozilla/5.0 (Macintosh; Intel Mac OS X 10.15; rv:94.0) Gecko/20100101 Firefox/94.0","dateTime":"2021-11-17T05:12:13.399Z","isRelevant":false},{"taskStarted":true,"dateTime":"2021-11-09T17:56:28.362Z","isRelevant":false},{"internal_node_id":"0.0-0.0-1.0","success":true,"trial_type":"preload","failed_images":[],"time_elapsed":443,"trial_index":0,"failed_audio":[],"failed_video":[],"timeout":false,"dateTime":"2021-11-09T17:56:28.805Z","isRelevant":false},{"internal_node_id":"0.0-0.0-2.0","rt":5702.9000000059605,"response":" ","trial_type":"html-keyboard-response","stimulus":"<h2>Pattern Separation Task</h2> <p> You are about to start a new task. In this task, you will be asked to view a series of common objects and remember them for a later memory test. While you view each item, please answer yes or no to the following questions: </p> Will the object fit inside a lady’s medium shoe box?<br/> Can you carry the object across the room using only your right hand?<br/> <p> Before we begin the actual task, let’s try a few practice trials. </p> <em>Press the space bar to continue</em>","time_elapsed":6149,"trial_index":1,"dateTime":"2021-11-09T17:56:34.511Z","isRelevant":false},{"internal_node_id":"0.0-0.0-3.0","rt":5703,"response":" ","trial_type":"html-keyboard-response","stimulus":"<h2>Pattern Separation Task</h2> <p> In the practice trials, you will see 4 items twice. Please answer the question presented underneath the item by pressing \"y\" for \"yes\" or \"n\" for \"no\" as well as trying to remember them for a later memory test. </p> <em>Press the space bar to continue</em> ","time_elapsed":11855,"trial_index":2,"dateTime":"2021-11-09T17:56:40.216Z","isRelevant":false},{"internal_node_id":"0.0-0.0-4.0-0.0","rt":2123,"isLearning":true,"isPractice":true,"response":"n","trial_type":"image-keyboard-response","stimulus":"https://d3vowlh1lzbs4j.cloudfront.net/pat/violin1.jpg","time_elapsed":14364,"trial_index":3,"pic":"violin1.jpg","type":"Target","dateTime":"2021-11-09T17:56:42.730Z","isRelevant":true},{"internal_node_id":"0.0-0.0-4.0-0.1","rt":819,"isLearning":true,"isPractice":true,"response":"n","trial_type":"image-keyboard-response","stimulus":"https://d3vowlh1lzbs4j.cloudfront.net/pat/Wagon_1.jpg","time_elapsed":16880,"trial_index":4,"pic":"Wagon_1.jpg","type":"Target","dateTime":"2021-11-09T17:56:45.242Z","isRelevant":true},{"internal_node_id":"0.0-0.0-4.0-0.2","rt":1072.5,"isLearning":true,"isPractice":true,"response":"n","trial_type":"image-keyboard-response","stimulus":"https://d3vowlh1lzbs4j.cloudfront.net/pat/waffle_maker1.jpg","time_elapsed":19388,"trial_index":5,"pic":"waffle_maker1.jpg","type":"Target","dateTime":"2021-11-09T17:56:47.750Z","isRelevant":true},{"internal_node_id":"0.0-0.0-4.0-0.3","rt":871.9000000059605,"isLearning":true,"isPractice":true,"response":"n","trial_type":"image-keyboard-response","stimulus":"https://d3vowlh1lzbs4j.cloudfront.net/pat/typewritter1.jpg","time_elapsed":21899,"trial_index":6,"pic":"typewritter1.jpg","type":"Target","dateTime":"2021-11-09T17:56:50.261Z","isRelevant":true},{"internal_node_id":"0.0-0.0-5.0-0.0","rt":1539.7999999821186,"isLearning":true,"isPractice":true,"response":"y","trial_type":"image-keyboard-response","stimulus":"https://d3vowlh1lzbs4j.cloudfront.net/pat/violin1.jpg","time_elapsed":24412,"trial_index":7,"pic":"violin1.jpg","type":"Target","dateTime":"2021-11-09T17:56:52.773Z","isRelevant":true},{"internal_node_id":"0.0-0.0-5.0-0.1","rt":723.5999999940395,"isLearning":true,"isPractice":true,"response":"y","trial_type":"image-keyboard-response","stimulus":"https://d3vowlh1lzbs4j.cloudfront.net/pat/Wagon_1.jpg","time_elapsed":26921,"trial_index":8,"pic":"Wagon_1.jpg","type":"Target","dateTime":"2021-11-09T17:56:55.283Z","isRelevant":true},{"internal_node_id":"0.0-0.0-5.0-0.2","rt":810.0999999940395,"isLearning":true,"isPractice":true,"response":"n","trial_type":"image-keyboard-response","stimulus":"https://d3vowlh1lzbs4j.cloudfront.net/pat/waffle_maker1.jpg","time_elapsed":29427,"trial_index":9,"pic":"waffle_maker1.jpg","type":"Target","dateTime":"2021-11-09T17:56:57.789Z","isRelevant":true},{"internal_node_id":"0.0-0.0-5.0-0.3","rt":1915.9000000059605,"isLearning":true,"isPractice":true,"response":"n","trial_type":"image-keyboard-response","stimulus":"https://d3vowlh1lzbs4j.cloudfront.net/pat/typewritter1.jpg","time_elapsed":31938,"trial_index":10,"pic":"typewritter1.jpg","type":"Target","dateTime":"2021-11-09T17:57:00.300Z","isRelevant":true},{"internal_node_id":"0.0-0.0-6.0","rt":6814.799999982119,"response":" ","trial_type":"html-keyboard-response","stimulus":"<h2>Pattern Separation Task</h2> <p> You will be tested on your memory for the objects you saw earlier. Please indicate whether each item is 1 = definitely old, 2 = maybe old, 3 = maybe new, or 4 = definitely new. “Definitely old” means you are confident that you saw the object. “Maybe old” means that you think you saw the object, but not completely sure.   ”Maybe new” means that you don’t think you saw the object, but not completely sure. “Definitely new” means you are confident that you did not see the object. </p> <em>Press the space bar to continue</em> ","time_elapsed":38759,"trial_index":11,"dateTime":"2021-11-09T17:57:07.121Z","isRelevant":false},{"internal_node_id":"0.0-0.0-7.0-0.0","rt":1318.4000000059605,"isPractice":true,"response":"1","trial_type":"image-keyboard-response","stimulus":"https://d3vowlh1lzbs4j.cloudfront.net/pat/typewritter1.jpg","time_elapsed":40084,"isRecall":true,"trial_index":12,"pic":"typewritter1.jpg","type":"Target","dateTime":"2021-11-09T17:57:08.446Z","isRelevant":true},{"internal_node_id":"0.0-0.0-7.0-0.1","rt":966.1999999880791,"isPractice":true,"response":"1","trial_type":"image-keyboard-response","stimulus":"https://d3vowlh1lzbs4j.cloudfront.net/pat/violin1.jpg","time_elapsed":41055,"isRecall":true,"trial_index":13,"pic":"violin1.jpg","type":"Target","dateTime":"2021-11-09T17:57:09.417Z","isRelevant":true},{"internal_node_id":"0.0-0.0-7.0-0.2","rt":897.1999999880791,"isPractice":true,"response":"1","trial_type":"image-keyboard-response","stimulus":"https://d3vowlh1lzbs4j.cloudfront.net/pat/waffle_maker1.jpg","time_elapsed":41957,"isRecall":true,"trial_index":14,"pic":"waffle_maker1.jpg","type":"Target","dateTime":"2021-11-09T17:57:10.318Z","isRelevant":true},{"internal_node_id":"0.0-0.0-7.0-0.3","rt":624.5,"isPractice":true,"response":"1","trial_type":"image-keyboard-response","stimulus":"https://d3vowlh1lzbs4j.cloudfront.net/pat/Wagon_1.jpg","time_elapsed":42585,"isRecall":true,"trial_index":15,"pic":"Wagon_1.jpg","type":"Target","dateTime":"2021-11-09T17:57:10.947Z","isRelevant":true},{"internal_node_id":"0.0-0.0-8.0","rt":8013.5,"response":" ","trial_type":"html-keyboard-response","stimulus":"<h2>Pattern Separation Task</h2> <p> We will begin the actual task. You will see 30 items. Please answer the question presented underneath the item as well as trying to remember them for a later memory test. Please note that the memory test will be given 30 minutes after this viewing session. </p> <em>Press the space bar to continue</em> ","time_elapsed":50602,"trial_index":16,"dateTime":"2021-11-09T17:57:18.964Z","isRelevant":false},{"internal_node_id":"0.0-0.0-9.0-0.0","rt":null,"isLearning":true,"response":null,"trial_type":"image-keyboard-response","stimulus":"https://d3vowlh1lzbs4j.cloudfront.net/pat/chutes_and_ladders1.jpg","time_elapsed":53114,"trial_index":17,"pic":"chutes_and_ladders1.jpg","type":"Target","dateTime":"2021-11-09T17:57:21.475Z","isRelevant":true},{"internal_node_id":"0.0-0.0-9.0-1.0-0.0","rt":null,"response":null,"trial_type":"html-keyboard-response","stimulus":"Answer faster next time","time_elapsed":53919,"trial_index":18,"dateTime":"2021-11-09T17:57:22.281Z","isRelevant":false},{"internal_node_id":"0.0-0.0-9.0-0.1","rt":1296.800000011921,"isLearning":true,"response":"y","trial_type":"image-keyboard-response","stimulus":"https://d3vowlh1lzbs4j.cloudfront.net/pat/baby_toy1.jpg","time_elapsed":56432,"trial_index":19,"pic":"baby_toy1.jpg","type":"Target","dateTime":"2021-11-09T17:57:24.793Z","isRelevant":true},{"internal_node_id":"0.0-0.0-9.0-0.2","rt":1213.0999999940395,"isLearning":true,"response":"y","trial_type":"image-keyboard-response","stimulus":"https://d3vowlh1lzbs4j.cloudfront.net/pat/caterpillar1.jpg","time_elapsed":58936,"trial_index":20,"pic":"caterpillar1.jpg","type":"Target","dateTime":"2021-11-09T17:57:27.298Z","isRelevant":true},{"internal_node_id":"0.0-0.0-9.0-0.3","rt":728.1999999880791,"isLearning":true,"response":"n","trial_type":"image-keyboard-response","stimulus":"https://d3vowlh1lzbs4j.cloudfront.net/pat/microwave_old1.jpg","time_elapsed":61447,"trial_index":21,"pic":"microwave_old1.jpg","type":"Target","dateTime":"2021-11-09T17:57:29.809Z","isRelevant":true},{"internal_node_id":"0.0-0.0-9.0-0.4","rt":987,"isLearning":true,"response":"y","trial_type":"image-keyboard-response","stimulus":"https://d3vowlh1lzbs4j.cloudfront.net/pat/belt1.jpg","time_elapsed":63954,"trial_index":22,"pic":"belt1.jpg","type":"Target","dateTime":"2021-11-09T17:57:32.316Z","isRelevant":true},{"internal_node_id":"0.0-0.0-9.0-0.5","rt":935.3999999761581,"isLearning":true,"response":"n","trial_type":"image-keyboard-response","stimulus":"https://d3vowlh1lzbs4j.cloudfront.net/pat/computer_keys1.jpg","time_elapsed":66462,"trial_index":23,"pic":"computer_keys1.jpg","type":"Target","dateTime":"2021-11-09T17:57:34.824Z","isRelevant":true},{"internal_node_id":"0.0-0.0-9.0-0.6","rt":517.5999999940395,"isLearning":true,"response":"n","trial_type":"image-keyboard-response","stimulus":"https://d3vowlh1lzbs4j.cloudfront.net/pat/red_box1.jpg","time_elapsed":68973,"trial_index":24,"pic":"red_box1.jpg","type":"Target","dateTime":"2021-11-09T17:57:37.335Z","isRelevant":true},{"internal_node_id":"0.0-0.0-9.0-0.7","rt":574.2999999821186,"isLearning":true,"response":"y","trial_type":"image-keyboard-response","stimulus":"https://d3vowlh1lzbs4j.cloudfront.net/pat/domino1.jpg","time_elapsed":71491,"trial_index":25,"pic":"domino1.jpg","type":"Target","dateTime":"2021-11-09T17:57:39.855Z","isRelevant":true},{"internal_node_id":"0.0-0.0-9.0-0.8","rt":632.5,"isLearning":true,"response":"n","trial_type":"image-keyboard-response","stimulus":"https://d3vowlh1lzbs4j.cloudfront.net/pat/snare_drum1.jpg","time_elapsed":73999,"trial_index":26,"pic":"snare_drum1.jpg","type":"Target","dateTime":"2021-11-09T17:57:42.364Z","isRelevant":true},{"internal_node_id":"0.0-0.0-9.0-0.9","rt":597.6999999880791,"isLearning":true,"response":"n","trial_type":"image-keyboard-response","stimulus":"https://d3vowlh1lzbs4j.cloudfront.net/pat/coffee_maker1.jpg","time_elapsed":76515,"trial_index":27,"pic":"coffee_maker1.jpg","type":"Target","dateTime":"2021-11-09T17:57:44.879Z","isRelevant":true},{"internal_node_id":"0.0-0.0-9.0-0.10","rt":777.7000000178814,"isLearning":true,"response":"y","trial_type":"image-keyboard-response","stimulus":"https://d3vowlh1lzbs4j.cloudfront.net/pat/Lipstick_1.jpg","time_elapsed":79031,"trial_index":28,"pic":"Lipstick_1.jpg","type":"Target","dateTime":"2021-11-09T17:57:47.394Z","isRelevant":true},{"internal_node_id":"0.0-0.0-9.0-0.11","rt":1046.5,"isLearning":true,"response":"n","trial_type":"image-keyboard-response","stimulus":"https://d3vowlh1lzbs4j.cloudfront.net/pat/book_objects1.jpg","time_elapsed":81544,"trial_index":29,"pic":"book_objects1.jpg","type":"Target","dateTime":"2021-11-09T17:57:49.908Z","isRelevant":true},{"internal_node_id":"0.0-0.0-9.0-0.12","rt":897.5999999940395,"isLearning":true,"response":"n","trial_type":"image-keyboard-response","stimulus":"https://d3vowlh1lzbs4j.cloudfront.net/pat/golf_bag1.jpg","time_elapsed":84056,"trial_index":30,"pic":"golf_bag1.jpg","type":"Target","dateTime":"2021-11-09T17:57:52.418Z","isRelevant":true},{"internal_node_id":"0.0-0.0-9.0-0.13","rt":723.0999999940395,"isLearning":true,"response":"n","trial_type":"image-keyboard-response","stimulus":"https://d3vowlh1lzbs4j.cloudfront.net/pat/box_of_nails1.jpg","time_elapsed":86572,"trial_index":31,"pic":"box_of_nails1.jpg","type":"Target","dateTime":"2021-11-09T17:57:54.936Z","isRelevant":true},{"internal_node_id":"0.0-0.0-9.0-0.14","rt":829.9000000059605,"isLearning":true,"response":"n","trial_type":"image-keyboard-response","stimulus":"https://d3vowlh1lzbs4j.cloudfront.net/pat/arrow_target1.jpg","time_elapsed":89086,"trial_index":32,"pic":"arrow_target1.jpg","type":"Target","dateTime":"2021-11-09T17:57:57.452Z","isRelevant":true},{"internal_node_id":"0.0-0.0-9.0-0.15","rt":759.9000000059605,"isLearning":true,"response":"n","trial_type":"image-keyboard-response","stimulus":"https://d3vowlh1lzbs4j.cloudfront.net/pat/polar_bear1.jpg","time_elapsed":91601,"trial_index":33,"pic":"polar_bear1.jpg","type":"Target","dateTime":"2021-11-09T17:57:59.963Z","isRelevant":true},{"internal_node_id":"0.0-0.0-9.0-0.16","rt":554.0999999940395,"isLearning":true,"response":"y","trial_type":"image-keyboard-response","stimulus":"https://d3vowlh1lzbs4j.cloudfront.net/pat/crayon1.jpg","time_elapsed":94108,"trial_index":34,"pic":"crayon1.jpg","type":"Target","dateTime":"2021-11-09T17:58:02.470Z","isRelevant":true},{"internal_node_id":"0.0-0.0-9.0-0.17","rt":684.9000000059605,"isLearning":true,"response":"y","trial_type":"image-keyboard-response","stimulus":"https://d3vowlh1lzbs4j.cloudfront.net/pat/first_place1.jpg","time_elapsed":96616,"trial_index":35,"pic":"first_place1.jpg","type":"Target","dateTime":"2021-11-09T17:58:04.978Z","isRelevant":true},{"internal_node_id":"0.0-0.0-9.0-0.18","rt":793.4000000059605,"isLearning":true,"response":"y","trial_type":"image-keyboard-response","stimulus":"https://d3vowlh1lzbs4j.cloudfront.net/pat/euro501.jpg","time_elapsed":99127,"trial_index":36,"pic":"euro501.jpg","type":"Target","dateTime":"2021-11-09T17:58:07.489Z","isRelevant":true},{"internal_node_id":"0.0-0.0-9.0-0.19","rt":478.7000000178814,"isLearning":true,"response":"y","trial_type":"image-keyboard-response","stimulus":"https://d3vowlh1lzbs4j.cloudfront.net/pat/pen_green1.jpg","time_elapsed":101640,"trial_index":37,"pic":"pen_green1.jpg","type":"Target","dateTime":"2021-11-09T17:58:10.001Z","isRelevant":true},{"internal_node_id":"0.0-0.0-9.0-0.20","rt":842.1999999880791,"isLearning":true,"response":"n","trial_type":"image-keyboard-response","stimulus":"https://d3vowlh1lzbs4j.cloudfront.net/pat/diapers1.jpg","time_elapsed":104147,"trial_index":38,"pic":"diapers1.jpg","type":"Target","dateTime":"2021-11-09T17:58:12.509Z","isRelevant":true},{"internal_node_id":"0.0-0.0-9.0-0.21","rt":850.5999999940395,"isLearning":true,"response":"y","trial_type":"image-keyboard-response","stimulus":"https://d3vowlh1lzbs4j.cloudfront.net/pat/key_chain1.jpg","time_elapsed":106658,"trial_index":39,"pic":"key_chain1.jpg","type":"Target","dateTime":"2021-11-09T17:58:15.020Z","isRelevant":true},{"internal_node_id":"0.0-0.0-9.0-0.22","rt":827.4000000059605,"isLearning":true,"response":"n","trial_type":"image-keyboard-response","stimulus":"https://d3vowlh1lzbs4j.cloudfront.net/pat/hockey_stick1.jpg","time_elapsed":109168,"trial_index":40,"pic":"hockey_stick1.jpg","type":"Target","dateTime":"2021-11-09T17:58:17.531Z","isRelevant":true},{"internal_node_id":"0.0-0.0-9.0-0.23","rt":487.09999999403954,"isLearning":true,"response":"n","trial_type":"image-keyboard-response","stimulus":"https://d3vowlh1lzbs4j.cloudfront.net/pat/football1.jpg","time_elapsed":111680,"trial_index":41,"pic":"football1.jpg","type":"Target","dateTime":"2021-11-09T17:58:20.042Z","isRelevant":true},{"internal_node_id":"0.0-0.0-9.0-0.24","rt":724.6999999880791,"isLearning":true,"response":"n","trial_type":"image-keyboard-response","stimulus":"https://d3vowlh1lzbs4j.cloudfront.net/pat/camcorder_1.jpg","time_elapsed":114188,"trial_index":42,"pic":"camcorder_1.jpg","type":"Target","dateTime":"2021-11-09T17:58:22.549Z","isRelevant":true},{"internal_node_id":"0.0-0.0-9.0-0.25","rt":705.5999999940395,"isLearning":true,"response":"n","trial_type":"image-keyboard-response","stimulus":"https://d3vowlh1lzbs4j.cloudfront.net/pat/school_bag1.jpg","time_elapsed":116696,"trial_index":43,"pic":"school_bag1.jpg","type":"Target","dateTime":"2021-11-09T17:58:25.058Z","isRelevant":true},{"internal_node_id":"0.0-0.0-9.0-0.26","rt":620.0999999940395,"isLearning":true,"response":"y","trial_type":"image-keyboard-response","stimulus":"https://d3vowlh1lzbs4j.cloudfront.net/pat/old_alarmclock1.jpg","time_elapsed":119206,"trial_index":44,"pic":"old_alarmclock1.jpg","type":"Target","dateTime":"2021-11-09T17:58:27.568Z","isRelevant":true},{"internal_node_id":"0.0-0.0-9.0-0.27","rt":745.7999999821186,"isLearning":true,"response":"n","trial_type":"image-keyboard-response","stimulus":"https://d3vowlh1lzbs4j.cloudfront.net/pat/bulldozer1.jpg","time_elapsed":121717,"trial_index":45,"pic":"bulldozer1.jpg","type":"Target","dateTime":"2021-11-09T17:58:30.078Z","isRelevant":true},{"internal_node_id":"0.0-0.0-9.0-0.28","rt":558.5,"isLearning":true,"response":"n","trial_type":"image-keyboard-response","stimulus":"https://d3vowlh1lzbs4j.cloudfront.net/pat/drumset1.jpg","time_elapsed":124227,"trial_index":46,"pic":"drumset1.jpg","type":"Target","dateTime":"2021-11-09T17:58:32.588Z","isRelevant":true},{"internal_node_id":"0.0-0.0-9.0-0.29","rt":607.2999999821186,"isLearning":true,"response":"n","trial_type":"image-keyboard-response","stimulus":"https://d3vowlh1lzbs4j.cloudfront.net/pat/america_flag1.jpg","time_elapsed":126734,"trial_in