[{"taskStarted":true,"userId":"524d2272-d17f-42aa-b335-772a7ac10972","dateTime":"2021-11-11T15:56:42.706Z","isRelevant":false},{"trial_index":0,"internal_node_id":"0.0-0.0-1.0","rt":153713,"response":{"activity_level":"1","weight":"115","height_inches":"5","gender":"1","age":"45","height_feet":"5"},"trial_type":"survey-html-form","time_elapsed":153728,"userId":"524d2272-d17f-42aa-b335-772a7ac10972","dateTime":"2021-11-11T15:59:16.434Z","isRelevant":true},{"ua":"Mozilla/5.0 (Macintosh; Intel Mac OS X 10.15; rv:94.0) Gecko/20100101 Firefox/94.0","userId":"524d2272-d17f-42aa-b335-772a7ac10972","dateTime":"2021-11-11T15:59:16.435Z","isRelevant":false},{"taskStarted":true,"userId":"118a2724-6420-41e6-af9f-42da893ea092","dateTime":"2021-11-09T17:46:13.362Z","isRelevant":false},{"trial_index":0,"internal_node_id":"0.0-0.0-1.0","rt":45315.79999998212,"response":{"activity_level":"5","weight":"118","height_inches":"5","gender":"1","age":"22","height_feet":"5"},"trial_type":"survey-html-form","time_elapsed":45319,"userId":"118a2724-6420-41e6-af9f-42da893ea092","dateTime":"2021-11-09T17:46:58.683Z","isRelevant":true},{"ua":"Mozilla/5.0 (Macintosh; Intel Mac OS X 10_15_7) AppleWebKit/537.36 (KHTML, like Gecko) Chrome/95.0.4638.54 Safari/537.36","userId":"118a2724-6420-41e6-af9f-42da893ea092","dateTime":"2021-11-09T17:46:58.688Z","isRelevant":false},{"taskStarted":true,"userId":"b07d920b-a11a-422a-a359-694608c3cd00","dateTime":"2021-11-17T23:06:17.975Z","isRelevant":false},{"trial_index":0,"internal_node_id":"0.0-0.0-1.0","rt":93995.20000004768,"response":{"activity_level":"1","weight":"130","height_inches":"3","gender":"1","age":"48","height_feet":"5"},"trial_type":"survey-html-form","time_elapsed":93994,"userId":"b07d920b-a11a-422a-a359-694608c3cd00","dateTime":"2021-11-17T23:07:51.969Z","isRelevant":true},{"ua":"Mozilla/5.0 (Macintosh; Intel Mac OS X 10_15_7) AppleWebKit/537.36 (KHTML, like Gecko) Chrome/95.0.4638.54 Safari/537.36","userId":"b07d920b-a11a-422a-a359-694608c3cd00","dateTime":"2021-11-17T23:07:51.970Z","isRelevant":false},{"taskStarted":true,"userId":"1e7afe8d-bc84-463f-bd6e-c9bd987464be","dateTime":"2021-11-17T20:02:59.891Z","isRelevant":false},{"trial_index":0,"internal_node_id":"0.0-0.0-1.0","rt":225942,"response":{"activity_level":"6","weight":"143","height_inches":"9","gender":"0","age":"32","height_feet":"5"},"trial_type":"survey-html-form","time_elapsed":225948,"userId":"1e7afe8d-bc84-463f-bd6e-c9bd987464be","dateTime":"2021-11-17T20:06:45.839Z","isRelevant":true},{"ua":"Mozilla/5.0 (Windows NT 10.0; Win64; x64; rv:91.0) Gecko/20100101 Firefox/91.0","userId":"1e7afe8d-bc84-463f-bd6e-c9bd987464be","dateTime":"2021-11-17T20:06:45.841Z","isRelevant":false},{"taskStarted":true,"userId":"165fd106-8a5c-4705-8441-3beaa87dbda4","dateTime":"2021-11-16T22:49:37.729Z","isRelevant":false},{"trial_index":0,"internal_node_id":"0.0-0.0-1.0","rt":135035,"response":{"activity_level":"3","weight":"123","height_inches":"2","gender":"1","age":"37","height_feet":"5"},"trial_type":"survey-html-form","time_elapsed":135045,"userId":"165fd106-8a5c-4705-8441-3beaa87dbda4","dateTime":"2021-11-16T22:51:52.773Z","isRelevant":true},{"ua":"Mozilla/5.0 (Macintosh; Intel Mac OS X 10_15_7) AppleWebKit/605.1.15 (KHTML, like Gecko) Version/15.0 Safari/605.1.15","userId":"165fd106-8a5c-4705-8441-3beaa87dbda4","dateTime":"2021-11-16T22:51:52.775Z","isRelevant":false},{"taskStarted":true,"userId":"a39c0907-29e6-4c85-9188-b21b04ca17a6","dateTime":"2021-11-04T16:35:00.001Z","isRelevant":false},{"internal_node_id":"0.0-0.0-1.0","response":{"activity_level":"6","age":"29","gender":"0","height_feet":"5","height_inches":"9","weight":"210"},"rt":39726.10000038147,"time_elapsed":39732,"trial_index":0,"trial_type":"survey-html-form","userId":"a39c0907-29e6-4c85-9188-b21b04ca17a6","dateTime":"2021-11-04T16:35:39.733Z","isRelevant":true},{"ua":"Mozilla/5.0 (Macintosh; Intel Mac OS X 10_15_7) AppleWebKit/537.36 (KHTML, like Gecko) Chrome/95.0.4638.54 Safari/537.36","userId":"a39c0907-29e6-4c85-9188-b21b04ca17a6","dateTime":"2021-11-04T16:35:39.735Z","isRelevant":false},{"taskStarted":true,"userId":"792390ab-56ba-47a8-8c3c-1ea452762f1c","dateTime":"2021-11-11T18:49:32.123Z","isRelevant":false},{"trial_index":0,"internal_node_id":"0.0-0.0-1.0","rt":39672.59999999404,"response":{"activity_level":"5","weight":"215","height_inches":"9","gender":"0","age":"29","height_feet":"5"},"trial_type":"survey-html-form","time_elapsed":39678,"userId":"792390ab-56ba-47a8-8c3c-1ea452762f1c","dateTime":"2021-11-11T18:50:11.802Z","isRelevant":true},{"ua":"Mozilla/5.0 (Windows NT 10.0; Win64; x64) AppleWebKit/537.36 (KHTML, like Gecko) Chrome/95.0.4638.69 Safari/537.36 Edg/95.0.1020.44","userId":"792390ab-56ba-47a8-8c3c-1ea452762f1c","dateTime":"2021-11-11T18:50:11.805Z","isRelevant":false},{"taskStarted":true,"userId":"ed732f11-6a56-4990-9a8d-9465c81770fb","dateTime":"2021-11-15T19:01:34.605Z","isRelevant":false},{"trial_index":0,"internal_node_id":"0.0-0.0-0.0-0.0","success":true,"trial_type":"fullscreen","time_elapsed":1374,"userId":"ed732f11-6a56-4990-9a8d-9465c81770fb","dateTime":"2021-11-15T19:01:35.980Z","isRelevant":false},{"taskStarted":true,"userId":"ed732f11-6a56-4990-9a8d-9465c81770fb","dateTime":"2021-11-15T19:02:54.268Z","isRelevant":false},{"trial_index":0,"internal_node_id":"0.0-0.0-0.0-0.0","success":true,"trial_type":"fullscreen","time_elapsed":1679,"userId":"ed732f11-6a56-4990-9a8d-9465c81770fb","dateTime":"2021-11-15T19:02:55.948Z","isRelevant":false},{"taskStarted":true,"userId":"ed732f11-6a56-4990-9a8d-9465c81770fb","dateTime":"2021-11-15T19:03:26.807Z","isRelevant":false},{"trial_index":0,"internal_node_id":"0.0-0.0-0.0-0.0","success":true,"trial_type":"fullscreen","time_elapsed":1723,"userId":"ed732f11-6a56-4990-9a8d-9465c81770fb","dateTime":"2021-11-15T19:03:28.526Z","isRelevant":false},{"taskStarted":true,"userId":"ed732f11-6a56-4990-9a8d-9465c81770fb","dateTime":"2021-11-15T19:04:12.638Z","isRelevant":false},{"trial_index":0,"internal_node_id":"0.0-0.0-0.0-0.0","success":true,"trial_type":"fullscreen","time_elapsed":2934,"userId":"ed732f11-6a56-4990-9a8d-9465c81770fb","dateTime":"2021-11-15T19:04:15.572Z","isRelevant":false},{"taskStarted":true,"userId":"ed732f11-6a56-4990-9a8d-9465c81770fb","dateTime":"2021-11-15T19:05:00.874Z","isRelevant":false},{"trial_index":0,"internal_node_id":"0.0-0.0-0.0-0.0","success":true,"trial_type":"fullscreen","time_elapsed":2225,"userId":"ed732f11-6a56-4990-9a8d-9465c81770fb","dateTime":"2021-11-15T19:05:03.099Z","isRelevant":false},{"taskStarted":true,"userId":"ed732f11-6a56-4990-9a8d-9465c81770fb","dateTime":"2021-11-15T19:05:29.873Z","isRelevant":false},{"trial_index":0,"internal_node_id":"0.0-0.0-0.0-0.0","success":true,"trial_type":"fullscreen","time_elapsed":2048,"userId":"ed732f11-6a56-4990-9a8d-9465c81770fb","dateTime":"2021-11-15T19:05:31.920Z","isRelevant":false},{"taskStarted":true,"userId":"ed732f11-6a56-4990-9a8d-9465c81770fb","dateTime":"2021-11-15T19:07:54.823Z","isRelevant":false},{"trial_index":0,"internal_node_id":"0.0-0.0-0.0-0.0","success":true,"trial_type":"fullscreen","time_elapsed":2013,"userId":"ed732f11-6a56-4990-9a8d-9465c81770fb","dateTime":"2021-11-15T19:07:56.836Z","isRelevant":false},{"taskStarted":true,"userId":"ed732f11-6a56-4990-9a8d-9465c81770fb","dateTime":"2021-11-15T19:12:42.535Z","isRelevant":false},{"trial_index":0,"internal_node_id":"0.0-0.0-0.0-0.0","success":true,"trial_type":"fullscreen","time_elapsed":2055,"userId":"ed732f11-6a56-4990-9a8d-9465c81770fb","dateTime":"2021-11-15T19:12:44.590Z","isRelevant":false},{"taskStarted":true,"userId":"ed732f11-6a56-4990-9a8d-9465c81770fb","dateTime":"2021-11-17T16:42:47.265Z","isRelevant":false},{"trial_index":0,"internal_node_id":"0.0-0.0-0.0-0.0","success":true,"trial_type":"fullscreen","time_elapsed":2442,"userId":"ed732f11-6a56-4990-9a8d-9465c81770fb","dateTime":"2021-11-17T16:42:49.708Z","isRelevant":false},{"taskStarted":true,"userId":"ed732f11-6a56-4990-9a8d-9465c81770fb","dateTime":"2021-11-17T16:43:11.796Z","isRelevant":false},{"trial_index":0,"internal_node_id":"0.0-0.0-0.0-0.0","success":true,"trial_type":"fullscreen","time_elapsed":2568,"userId":"ed732f11-6a56-4990-9a8d-9465c81770fb","dateTime":"2021-11-17T16:43:14.364Z","isRelevant":false},{"taskStarted":true,"userId":"ed732f11-6a56-4990-9a8d-9465c81770fb","dateTime":"2021-11-17T16:43:32.141Z","isRelevant":false},{"trial_index":0,"internal_node_id":"0.0-0.0-0.0-0.0","success":true,"trial_type":"fullscreen","time_elapsed":2610,"userId":"ed732f11-6a56-4990-9a8d-9465c81770fb","dateTime":"2021-11-17T16:43:34.753Z","isRelevant":false},{"taskStarted":true,"userId":"ed732f11-6a56-4990-9a8d-9465c81770fb","dateTime":"2021-11-17T16:44:12.077Z","isRelevant":false},{"trial_index":0,"internal_node_id":"0.0-0.0-0.0-0.0","success":true,"trial_type":"fullscreen","time_elapsed":1153,"userId":"ed732f11-6a56-4990-9a8d-9465c81770fb","dateTime":"2021-11-17T16:44:13.230Z","isRelevant":false},{"taskStarted":true,"userId":"ed732f11-6a56-4990-9a8d-9465c81770fb","dateTime":"2021-11-17T16:54:27.321Z","isRelevant":false},{"taskStarted":true,"userId":"6079389f-5d71-4087-9a91-f7e150dec265","dateTime":"2021-11-10T20:48:54.895Z","isRelevant":false},{"trial_index":0,"internal_node_id":"0.0-0.0-1.0","rt":71562.89999999851,"response":{"activity_level":"1","weight":"240","height_inches":"4","gender":"1","age":"31","height_feet":"5"},"trial_type":"survey-html-form","time_elapsed":71568,"userId":"6079389f-5d71-4087-9a91-f7e150dec265","dateTime":"2021-11-10T20:50:06.462Z","isRelevant":true},{"ua":"Mozilla/5.0 (Windows NT 10.0; Win64; x64) AppleWebKit/537.36 (KHTML, like Gecko) Chrome/95.0.4638.69 Safari/537.36","userId":"6079389f-5d71-4087-9a91-f7e150dec265","dateTime":"2021-11-10T20:50:06.469Z","isRelevant":false},{"taskStarted":true,"userId":"0d940b94-1baf-43bf-a981-857ddf728e29","dateTime":"2021-11-11T17:35:35.722Z","isRelevant":false},{"trial_index":0,"internal_node_id":"0.0-0.0-1.0","rt":331057,"response":{"activity_level":"6","weight":"115","height_inches":"4","gender":"1","age":"49","height_feet":"5"},"trial_type":"survey-html-form","time_elapsed":331064,"userId":"0d940b94-1baf-43bf-a981-857ddf728e29","dateTime":"2021-11-11T17:41:06.786Z","isRelevant":true},{"ua":"Mozilla/5.0 (Macintosh; Intel Mac OS X 10.15; rv:94.0) Gecko/20100101 Firefox/94.0","userId":"0d940b94-1baf-43bf-a981-857ddf728e29","dateTime":"2021-11-11T17:41:06.789Z","isRelevant":false},{"taskStarted":true,"userId":"0498cbe0-60ab-45be-984d-ded9dbcdc27d","dateTime":"2021-11-06T19:02:53.532Z","isRelevant":false},{"trial_index":0,"internal_node_id":"0.0-0.0-1.0","rt":67159.19999999553,"response":{"activity_level":"2","weight":"165","height_inches":"10","gender":"0","age":"20","height_feet":"5"},"trial_type":"survey-html-form","time_elapsed":67161,"userId":"0498cbe0-60ab-45be-984d-ded9dbcdc27d","dateTime":"2021-11-06T19:04:00.693Z","isRelevant":true},{"ua":"Mozilla/5.0 (Windows NT 10.0; Win64; x64) AppleWebKit/537.36 (KHTML, like Gecko) Chrome/95.0.4638.69 Safari/537.36","userId":"0498cbe0-60ab-45be-984d-ded9dbcdc27d","dateTime":"2021-11-06T19:04:00.697Z","isRelevant":false}]
