[{"taskStarted":true,"dateTime":"2021-11-11T15:56:42.706Z","isRelevant":false},{"trial_index":0,"internal_node_id":"0.0-0.0-1.0","rt":153713,"response":{"activity_level":"1","weight":"115","height_inches":"5","gender":"1","age":"45","height_feet":"5"},"trial_type":"survey-html-form","time_elapsed":153728,"dateTime":"2021-11-11T15:59:16.434Z","isRelevant":true},{"ua":"Mozilla/5.0 (Macintosh; Intel Mac OS X 10.15; rv:94.0) Gecko/20100101 Firefox/94.0","dateTime":"2021-11-11T15:59:16.435Z","isRelevant":false},{"taskStarted":true,"dateTime":"2021-11-09T17:46:13.362Z","isRelevant":false},{"trial_index":0,"internal_node_id":"0.0-0.0-1.0","rt":45315.79999998212,"response":{"activity_level":"5","weight":"118","height_inches":"5","gender":"1","age":"22","height_feet":"5"},"trial_type":"survey-html-form","time_elapsed":45319,"dateTime":"2021-11-09T17:46:58.683Z","isRelevant":true},{"ua":"Mozilla/5.0 (Macintosh; Intel Mac OS X 10_15_7) AppleWebKit/537.36 (KHTML, like Gecko) Chrome/95.0.4638.54 Safari/537.36","dateTime":"2021-11-09T17:46:58.688Z","isRelevant":false},{"taskStarted":true,"dateTime":"2021-11-16T22:49:37.729Z","isRelevant":false},{"trial_index":0,"internal_node_id":"0.0-0.0-1.0","rt":135035,"response":{"activity_level":"3","weight":"123","height_inches":"2","gender":"1","age":"37","height_feet":"5"},"trial_type":"survey-html-form","time_elapsed":135045,"dateTime":"2021-11-16T22:51:52.773Z","isRelevant":true},{"ua":"Mozilla/5.0 (Macintosh; Intel Mac OS X 10_15_7) AppleWebKit/605.1.15 (KHTML, like Gecko) Version/15.0 Safari/605.1.15","dateTime":"2021-11-16T22:51:52.775Z","isRelevant":false},{"taskStarted":true,"dateTime":"2021-11-04T16:35:00.001Z","isRelevant":false},{"internal_node_id":"0.0-0.0-1.0","response":{"activity_level":"6","age":"29","gender":"0","height_feet":"5","height_inches":"9","weight":"210"},"rt":39726.10000038147,"time_elapsed":39732,"trial_index":0,"trial_type":"survey-html-form","dateTime":"2021-11-04T16:35:39.733Z","isRelevant":true},{"ua":"Mozilla/5.0 (Macintosh; Intel Mac OS X 10_15_7) AppleWebKit/537.36 (KHTML, like Gecko) Chrome/95.0.4638.54 Safari/537.36","dateTime":"2021-11-04T16:35:39.735Z","isRelevant":false},{"taskStarted":true,"dateTime":"2021-11-11T18:49:32.123Z","isRelevant":false},{"trial_index":0,"internal_node_id":"0.0-0.0-1.0","rt":39672.59999999404,"response":{"activity_level":"5","weight":"215","height_inches":"9","gender":"0","age":"29","height_feet":"5"},"trial_type":"survey-html-form","time_elapsed":39678,"dateTime":"2021-11-11T18:50:11.802Z","isRelevant":true},{"ua":"Mozilla/5.0 (Windows NT 10.0; Win64; x64) AppleWebKit/537.36 (KHTML, like Gecko) Chrome/95.0.4638.69 Safari/537.36 Edg/95.0.1020.44","dateTime":"2021-11-11T18:50:11.805Z","isRelevant":false},{"taskStarted":true,"dateTime":"2021-11-15T19:01:34.605Z","isRelevant":false},{"trial_index":0,"internal_node_id":"0.0-0.0-0.0-0.0","success":true,"trial_type":"fullscreen","time_elapsed":1374,"dateTime":"2021-11-15T19:01:35.980Z","isRelevant":false},{"taskStarted":true,"dateTime":"2021-11-15T19:02:54.268Z","isRelevant":false},{"trial_index":0,"internal_node_id":"0.0-0.0-0.0-0.0","success":true,"trial_type":"fullscreen","time_elapsed":1679,"dateTime":"2021-11-15T19:02:55.948Z","isRelevant":false},{"taskStarted":true,"dateTime":"2021-11-15T19:03:26.807Z","isRelevant":false},{"trial_index":0,"internal_node_id":"0.0-0.0-0.0-0.0","success":true,"trial_type":"fullscreen","time_elapsed":1723,"dateTime":"2021-11-15T19:03:28.526Z","isRelevant":false},{"taskStarted":true,"dateTime":"2021-11-15T19:04:12.638Z","isRelevant":false},{"trial_index":0,"internal_node_id":"0.0-0.0-0.0-0.0","success":true,"trial_type":"fullscreen","time_elapsed":2934,"dateTime":"2021-11-15T19:04:15.572Z","isRelevant":false},{"taskStarted":true,"dateTime":"2021-11-15T19:05:00.874Z","isRelevant":false},{"trial_index":0,"internal_node_id":"0.0-0.0-0.0-0.0","success":true,"trial_type":"fullscreen","time_elapsed":2225,"dateTime":"2021-11-15T19:05:03.099Z","isRelevant":false},{"taskStarted":true,"dateTime":"2021-11-15T19:05:29.873Z","isRelevant":false},{"trial_index":0,"internal_node_id":"0.0-0.0-0.0-0.0","success":true,"trial_type":"fullscreen","time_elapsed":2048,"dateTime":"2021-11-15T19:05:31.920Z","isRelevant":false},{"taskStarted":true,"dateTime":"2021-11-15T19:07:54.823Z","isRelevant":false},{"trial_index":0,"internal_node_id":"0.0-0.0-0.0-0.0","success":true,"trial_type":"fullscreen","time_elapsed":2013,"dateTime":"2021-11-15T19:07:56.836Z","isRelevant":false},{"taskStarted":true,"dateTime":"2021-11-15T19:12:42.535Z","isRelevant":false},{"trial_index":0,"internal_node_id":"0.0-0.0-0.0-0.0","success":true,"trial_type":"fullscreen","time_elapsed":2055,"dateTime":"2021-11-15T19:12:44.590Z","isRelevant":false},{"taskStarted":true,"dateTime":"2021-11-17T16:42:47.265Z","isRelevant":false},{"trial_index":0,"internal_node_id":"0.0-0.0-0.0-0.0","success":true,"trial_type":"fullscreen","time_elapsed":2442,"dateTime":"2021-11-17T16:42:49.708Z","isRelevant":false},{"taskStarted":true,"dateTime":"2021-11-17T16:43:11.796Z","isRelevant":false},{"trial_index":0,"internal_node_id":"0.0-0.0-0.0-0.0","success":true,"trial_type":"fullscreen","time_elapsed":2568,"dateTime":"2021-11-17T16:43:14.364Z","isRelevant":false},{"taskStarted":true,"dateTime":"2021-11-17T16:43:32.141Z","isRelevant":false},{"trial_index":0,"internal_node_id":"0.0-0.0-0.0-0.0","success":true,"trial_type":"fullscreen","time_elapsed":2610,"dateTime":"2021-11-17T16:43:34.753Z","isRelevant":false},{"taskStarted":true,"dateTime":"2021-11-17T16:44:12.077Z","isRelevant":false},{"trial_index":0,"internal_node_id":"0.0-0.0-0.0-0.0","success":true,"trial_type":"fullscreen","time_elapsed":1153,"dateTime":"2021-11-17T16:44:13.230Z","isRelevant":false},{"taskStarted":true,"dateTime":"2021-11-17T16:54:27.321Z","isRelevant":false},{"taskStarted":true,"dateTime":"2021-11-10T20:48:54.895Z","isRelevant":false},{"trial_index":0,"internal_node_id":"0.0-0.0-1.0","rt":71562.89999999851,"response":{"activity_level":"1","weight":"240","height_inches":"4","gender":"1","age":"31","height_feet":"5"},"trial_type":"survey-html-form","time_elapsed":71568,"dateTime":"2021-11-10T20:50:06.462Z","isRelevant":true},{"ua":"Mozilla/5.0 (Windows NT 10.0; Win64; x64) AppleWebKit/537.36 (KHTML, like Gecko) Chrome/95.0.4638.69 Safari/537.36","dateTime":"2021-11-10T20:50:06.469Z","isRelevant":false},{"taskStarted":true,"dateTime":"2021-11-16T22:49:45.613Z","isRelevant":false},{"trial_index":0,"internal_node_id":"0.0-0.0-0.0-0.0","success":true,"trial_type":"fullscreen","time_elapsed":1221,"dateTime":"2021-11-16T22:49:46.834Z","isRelevant":false},{"taskStarted":true,"dateTime":"2021-11-11T17:35:35.722Z","isRelevant":false},{"trial_index":0,"internal_node_id":"0.0-0.0-1.0","rt":331057,"response":{"activity_level":"6","weight":"115","height_inches":"4","gender":"1","age":"49","height_feet":"5"},"trial_type":"survey-html-form","time_elapsed":331064,"dateTime":"2021-11-11T17:41:06.786Z","isRelevant":true},{"ua":"Mozilla/5.0 (Macintosh; Intel Mac OS X 10.15; rv:94.0) Gecko/20100101 Firefox/94.0","dateTime":"2021-11-11T17:41:06.789Z","isRelevant":false},{"taskStarted":true,"dateTime":"2021-11-06T19:02:53.532Z","isRelevant":false},{"trial_index":0,"internal_node_id":"0.0-0.0-1.0","rt":67159.19999999553,"response":{"activity_level":"2","weight":"165","height_inches":"10","gender":"0","age":"20","height_feet":"5"},"trial_type":"survey-html-form","time_elapsed":67161,"dateTime":"2021-11-06T19:04:00.693Z","isRelevant":true},{"ua":"Mozilla/5.0 (Windows NT 10.0; Win64; x64) AppleWebKit/537.36 (KHTML, like Gecko) Chrome/95.0.4638.69 Safari/537.36","dateTime":"2021-11-06T19:04:00.697Z","isRelevant":false}]
