[{"taskStarted":true,"userId":"524d2272-d17f-42aa-b335-772a7ac10972","dateTime":"2021-11-10T16:41:00.543Z","isRelevant":false},{"internal_node_id":"0.0-0.0-1.0","rt":20156,"response":" ","trial_type":"html-keyboard-response","stimulus":"Thank you for finishing that task. The next task will be Spatial Orientation. <br> <br> This is a test of your ability to imagine different perspectives or orientations in space. In this task, you will see a picture of a scene of objects with a statement below it, together with an \"input circle\". You will be asked to imagine that you are standing at one object in the scene and facing another object. Your task is to draw a line showing the direction to a third object from this perspective. On each trial, you will be asked to imagine standing at a different first object, facing a different second object, and then to draw a line to a different third object. <br> <br> You respond by \"drawing\" a line on the arrow circle using the computer mouse. The center of the input circle represents your imagined location (at the first object) and the vertical line represents your imagined perspective (facing the second object). You need to draw the direction to a third object from this facing direction. <br> <br> <em>Press the space bar to continue.</em> ","time_elapsed":20158,"trial_index":0,"userId":"524d2272-d17f-42aa-b335-772a7ac10972","dateTime":"2021-11-10T16:41:20.701Z","isRelevant":false},{"internal_node_id":"0.0-0.0-2.0","rt":29639,"response":" ","trial_type":"html-keyboard-response","stimulus":"Look at the sample trial below. <img id=\"spatial-orientation-sample\" src=\"https://dev.heartbeamstudy.org/7def44c01e8a14587b8b.png\"/> In this example you are asked to imagine that you are standing at the <strong>bell</strong> facing the <strong>tree</strong>. Your task is to draw a line indicating the direction to the <strong>drum</strong>. In the sample trial this line has been drawn for you. In the test trials, your task is to draw this line on the arrow circle using the computer mouse. Can you see that if you were at the <strong>bell</strong> facing the <strong>tree</strong> the <strong>drum</strong> would be in the direction shown by the dotted line? <br> <br> Now you will begin practicing on the computer. <br> <br> <em>Press the space bar to continue.</em>","time_elapsed":49799,"trial_index":1,"userId":"524d2272-d17f-42aa-b335-772a7ac10972","dateTime":"2021-11-10T16:41:50.342Z","isRelevant":false},{"timeLimit":null,"internal_node_id":"0.0-0.0-3.0","rt":11049,"targetRadians":0.9624657945830842,"trial_type":"spatial-orientation","time_elapsed":61850,"trial_index":2,"completionReason":"responded","responseRadians":0.9567410774187072,"userId":"524d2272-d17f-42aa-b335-772a7ac10972","dateTime":"2021-11-10T16:42:02.399Z","isRelevant":false},{"internal_node_id":"0.0-0.0-4.0","rt":13598,"response":" ","trial_type":"html-keyboard-response","stimulus":"Now you will do three practice trials. When each trial appears, move the line and click to indicate your answer. <br> Once you have entered your answer the correct answer will be shown in red. <br> <em>Press the space bar to begin the practice trials.</em> ","time_elapsed":75456,"trial_index":3,"userId":"524d2272-d17f-42aa-b335-772a7ac10972","dateTime":"2021-11-10T16:42:15.999Z","isRelevant":false},{"timeLimit":null,"internal_node_id":"0.0-0.0-5.0","rt":12528,"targetRadians":-1.0086842634230553,"trial_type":"spatial-orientation","time_elapsed":88988,"trial_index":4,"completionReason":"responded","responseRadians":-0.8249358492804564,"userId":"524d2272-d17f-42aa-b335-772a7ac10972","dateTime":"2021-11-10T16:42:29.531Z","isRelevant":false},{"timeLimit":null,"internal_node_id":"0.0-0.0-6.0","rt":10076,"targetRadians":0.5839296875504644,"trial_type":"spatial-orientation","time_elapsed":100067,"trial_index":5,"completionReason":"responded","responseRadians":0.5805070998762979,"userId":"524d2272-d17f-42aa-b335-772a7ac10972","dateTime":"2021-11-10T16:42:40.610Z","isRelevant":false},{"timeLimit":null,"internal_node_id":"0.0-0.0-7.0","rt":12408,"targetRadians":-0.8795148654579059,"trial_type":"spatial-orientation","time_elapsed":113479,"trial_index":6,"completionReason":"responded","responseRadians":-0.964558562680198,"userId":"524d2272-d17f-42aa-b335-772a7ac10972","dateTime":"2021-11-10T16:42:54.023Z","isRelevant":false},{"internal_node_id":"0.0-0.0-8.0","rt":11856,"response":" ","trial_type":"html-keyboard-response","stimulus":"Now you will do the test. There are 12 items on this test. You will have 5 minutes to complete these items. <br> Please try to response accurately, but do not spend too much time on any one item. <br> <em>Press the space bar to begin the test trials.</em> ","time_elapsed":125338,"trial_index":7,"userId":"524d2272-d17f-42aa-b335-772a7ac10972","dateTime":"2021-11-10T16:43:05.881Z","isRelevant":false},{"trial_index":8,"internal_node_id":"0.0-0.0-9.0","trial_type":"call-function","time_elapsed":125339,"userId":"524d2272-d17f-42aa-b335-772a7ac10972","dateTime":"2021-11-10T16:43:05.882Z","isRelevant":false},{"timeLimit":299999,"internal_node_id":"0.0-0.0-10.0","rt":15474,"targetRadians":0.7103112782964007,"trial_type":"spatial-orientation","time_elapsed":141817,"trial_index":9,"completionReason":"responded","responseRadians":0.8035579036884474,"userId":"524d2272-d17f-42aa-b335-772a7ac10972","dateTime":"2021-11-10T16:43:22.360Z","isRelevant":true},{"timeLimit":283521,"internal_node_id":"0.0-0.0-11.0","rt":12215,"targetRadians":-2.92541464355029,"trial_type":"spatial-orientation","time_elapsed":155036,"trial_index":10,"completionReason":"responded","responseRadians":-2.877304301767694,"userId":"524d2272-d17f-42aa-b335-772a7ac10972","dateTime":"2021-11-10T16:43:35.579Z","isRelevant":true},{"timeLimit":270303,"internal_node_id":"0.0-0.0-12.0","rt":9822,"targetRadians":1.6318939858047552,"trial_type":"spatial-orientation","time_elapsed":165867,"trial_index":11,"completionReason":"responded","responseRadians":1.5032932950331475,"userId":"524d2272-d17f-42aa-b335-772a7ac10972","dateTime":"2021-11-10T16:43:46.410Z","isRelevant":true},{"timeLimit":259471,"internal_node_id":"0.0-0.0-13.0","rt":6960,"targetRadians":-0.7171802924858609,"trial_type":"spatial-orientation","time_elapsed":173832,"trial_index":12,"completionReason":"responded","responseRadians":-0.7264551723299714,"userId":"524d2272-d17f-42aa-b335-772a7ac10972","dateTime":"2021-11-10T16:43:54.376Z","isRelevant":true},{"timeLimit":251505,"internal_node_id":"0.0-0.0-14.0","rt":7287,"targetRadians":-0.44595476693421093,"trial_type":"spatial-orientation","time_elapsed":182124,"trial_index":13,"completionReason":"responded","responseRadians":-0.4616045867446973,"userId":"524d2272-d17f-42aa-b335-772a7ac10972","dateTime":"2021-11-10T16:44:02.667Z","isRelevant":true},{"timeLimit":243214,"internal_node_id":"0.0-0.0-15.0","rt":7863,"targetRadians":1.9104973713779634,"trial_type":"spatial-orientation","time_elapsed":190990,"trial_index":14,"completionReason":"responded","responseRadians":2.004862091406464,"userId":"524d2272-d17f-42aa-b335-772a7ac10972","dateTime":"2021-11-10T16:44:11.533Z","isRelevant":true},{"timeLimit":234348,"internal_node_id":"0.0-0.0-16.0","rt":9303,"targetRadians":-2.6691413797901933,"trial_type":"spatial-orientation","time_elapsed":201298,"trial_index":15,"completionReason":"responded","responseRadians":-2.6294302637977798,"userId":"524d2272-d17f-42aa-b335-772a7ac10972","dateTime":"2021-11-10T16:44:21.841Z","isRelevant":true},{"timeLimit":224040,"internal_node_id":"0.0-0.0-17.0","rt":15375,"targetRadians":-1.5920697128189578,"trial_type":"spatial-orientation","time_elapsed":217677,"trial_index":16,"completionReason":"responded","responseRadians":-1.4704351764057644,"userId":"524d2272-d17f-42aa-b335-772a7ac10972","dateTime":"2021-11-10T16:44:38.220Z","isRelevant":true},{"timeLimit":207661,"internal_node_id":"0.0-0.0-18.0","rt":10619,"targetRadians":-2.492252689052089,"trial_type":"spatial-orientation","time_elapsed":229297,"trial_index":17,"completionReason":"responded","responseRadians":-2.1993366542667703,"userId":"524d2272-d17f-42aa-b335-772a7ac10972","dateTime":"2021-11-10T16:44:49.840Z","isRelevant":true},{"timeLimit":196042,"internal_node_id":"0.0-0.0-19.0","rt":13184,"targetRadians":1.898504206311071,"trial_type":"spatial-orientation","time_elapsed":243484,"trial_index":18,"completionReason":"responded","responseRadians":1.9619764476688852,"userId":"524d2272-d17f-42aa-b335-772a7ac10972","dateTime":"2021-11-10T16:45:04.027Z","isRelevant":true},{"timeLimit":181853,"internal_node_id":"0.0-0.0-20.0","rt":8559,"targetRadians":1.624119345987489,"trial_type":"spatial-orientation","time_elapsed":253048,"trial_index":19,"completionReason":"responded","responseRadians":1.7349948507851036,"userId":"524d2272-d17f-42aa-b335-772a7ac10972","dateTime":"2021-11-10T16:45:13.591Z","isRelevant":true},{"timeLimit":172289,"internal_node_id":"0.0-0.0-21.0","rt":12044,"targetRadians":0.4742324526278433,"trial_type":"spatial-orientation","time_elapsed":266098,"trial_index":20,"completionReason":"responded","responseRadians":0.6686400936307735,"userId":"524d2272-d17f-42aa-b335-772a7ac10972","dateTime":"2021-11-10T16:45:26.641Z","isRelevant":true},{"ua":"Mozilla/5.0 (Macintosh; Intel Mac OS X 10.15; rv:94.0) Gecko/20100101 Firefox/94.0","userId":"524d2272-d17f-42aa-b335-772a7ac10972","dateTime":"2021-11-10T16:45:26.643Z","isRelevant":false},{"taskStarted":true,"userId":"524d2272-d17f-42aa-b335-772a7ac10972","dateTime":"2021-11-11T16:23:29.471Z","isRelevant":false},{"internal_node_id":"0.0-0.0-1.0","rt":9637,"response":" ","trial_type":"html-keyboard-response","stimulus":"Thank you for finishing that task. The next task will be Spatial Orientation. <br> <br> This is a test of your ability to imagine different perspectives or orientations in space. In this task, you will see a picture of a scene of objects with a statement below it, together with an \"input circle\". You will be asked to imagine that you are standing at one object in the scene and facing another object. Your task is to draw a line showing the direction to a third object from this perspective. On each trial, you will be asked to imagine standing at a different first object, facing a different second object, and then to draw a line to a different third object. <br> <br> You respond by \"drawing\" a line on the arrow circle using the computer mouse. The center of the input circle represents your imagined location (at the first object) and the vertical line represents your imagined perspective (facing the second object). You need to draw the direction to a third object from this facing direction. <br> <br> <em>Press the space bar to continue.</em> ","time_elapsed":9638,"trial_index":0,"userId":"524d2272-d17f-42aa-b335-772a7ac10972","dateTime":"2021-11-11T16:23:39.110Z","isRelevant":false},{"internal_node_id":"0.0-0.0-2.0","rt":6007,"response":" ","trial_type":"html-keyboard-response","stimulus":"Look at the sample trial below. <img id=\"spatial-orientation-sample\" src=\"https://dev.heartbeamstudy.org/7def44c01e8a14587b8b.png\"/> In this example you are asked to imagine that you are standing at the <strong>bell</strong> facing the <strong>tree</strong>. Your task is to draw a line indicating the direction to the <strong>drum</strong>. In the sample trial this line has been drawn for you. In the test trials, your task is to draw this line on the arrow circle using the computer mouse. Can you see that if you were at the <strong>bell</strong> facing the <strong>tree</strong> the <strong>drum</strong> would be in the direction shown by the dotted line? <br> <br> Now you will begin practicing on the computer. <br> <br> <em>Press the space bar to continue.</em>","time_elapsed":15646,"trial_index":1,"userId":"524d2272-d17f-42aa-b335-772a7ac10972","dateTime":"2021-11-11T16:23:45.117Z","isRelevant":false},{"timeLimit":null,"internal_node_id":"0.0-0.0-3.0","rt":6920,"targetRadians":0.9624657945830842,"trial_type":"spatial-orientation","time_elapsed":23570,"trial_index":2,"completionReason":"responded","responseRadians":0.9493981054208676,"userId":"524d2272-d17f-42aa-b335-772a7ac10972","dateTime":"2021-11-11T16:23:53.047Z","isRelevant":false},{"internal_node_id":"0.0-0.0-4.0","rt":4062,"response":" ","trial_type":"html-keyboard-response","stimulus":"Now you will do the test. There are 12 items on this test. You will have 5 minutes to complete these items. <br> Please try to response accurately, but do not spend too much time on any one item. <br> <em>Press the space bar to begin the test trials.</em> ","time_elapsed":27639,"trial_index":3,"userId":"524d2272-d17f-42aa-b335-772a7ac10972","dateTime":"2021-11-11T16:23:57.110Z","isRelevant":false},{"trial_index":4,"internal_node_id":"0.0-0.0-5.0","trial_type":"call-function","time_elapsed":27641,"userId":"524d2272-d17f-42aa-b335-772a7ac10972","dateTime":"2021-11-11T16:23:57.112Z","isRelevant":false},{"timeLimit":299999,"internal_node_id":"0.0-0.0-6.0","rt":11430,"targetRadians":0.2590433602255191,"trial_type":"spatial-orientation","time_elapsed":40073,"trial_index":5,"completionReason":"responded","responseRadians":0.23574681564155286,"userId":"524d2272-d17f-42aa-b335-772a7ac10972","dateTime":"2021-11-11T16:24:09.544Z","isRelevant":true},{"timeLimit":287568,"internal_node_id":"0.0-0.0-7.0","rt":10338,"targetRadians":-1.4607584003940466,"trial_type":"spatial-orientation","time_elapsed":51412,"trial_index":6,"completionReason":"responded","responseRadians":-1.331408269189764,"userId":"524d2272-d17f-42aa-b335-772a7ac10972","dateTime":"2021-11-11T16:24:20.883Z","isRelevant":true},{"timeLimit":276227,"internal_node_id":"0.0-0.0-8.0","rt":12082,"targetRadians":0.9030949126005828,"trial_type":"spatial-orientation","time_elapsed":64497,"trial_index":7,"completionReason":"responded","responseRadians":0.902032233143555,"userId":"524d2272-d17f-42aa-b335-772a7ac10972","dateTime":"2021-11-11T16:24:33.969Z","isRelevant":true},{"timeLimit":263142,"internal_node_id":"0.0-0.0-9.0","rt":7749,"targetRadians":-0.5358874732441836,"trial_type":"spatial-orientation","time_elapsed":73248,"trial_index":8,"completionReason":"responded","responseRadians":-0.55119707961643,"userId":"524d2272-d17f-42aa-b335-772a7ac10972","dateTime":"2021-11-11T16:24:42.720Z","isRelevant":true},{"timeLimit":254392,"internal_node_id":"0.0-0.0-10.0","rt":8201,"targetRadians":1.1502658682459053,"trial_type":"spatial-orientation","time_elapsed":82451,"trial_index":9,"completionReason":"responded","responseRadians":0.8875555441397041,"userId":"524d2272-d17f-42aa-b335-772a7ac10972","dateTime":"2021-11-11T16:24:51.922Z","isRelevant":true},{"timeLimit":245189,"internal_node_id":"0.0-0.0-11.0","rt":14534,"targetRadians":1.4983532678272677,"trial_type":"spatial-orientation","time_elapsed":97987,"trial_index":10,"completionReason":"responded","responseRadians":1.6057333245045955,"userId":"524d2272-d17f-42aa-b335-772a7ac10972","dateTime":"2021-11-11T16:25:07.458Z","isRelevant":true},{"timeLimit":229652,"internal_node_id":"0.0-0.0-12.0","rt":9471,"targetRadians":-0.17022309911327493,"trial_type":"spatial-orientation","time_elapsed":108462,"trial_index":11,"completionReason":"responded","responseRadians":-0.13082734990876324,"userId":"524d2272-d17f-42aa-b335-772a7ac10972","dateTime":"2021-11-11T16:25:17.933Z","isRelevant":true},{"timeLimit":219178,"internal_node_id":"0.0-0.0-13.0","rt":14827,"targetRadians":-0.8603587032473338,"trial_type":"spatial-orientation","time_elapsed":124289,"trial_index":12,"completionReason":"responded","responseRadians":-0.8479074060745457,"userId":"524d2272-d17f-42aa-b335-772a7ac10972","dateTime":"2021-11-11T16:25:33.761Z","isRelevant":true},{"timeLimit":203350,"internal_node_id":"0.0-0.0-14.0","rt":8324,"targetRadians":-0.2134079135740809,"trial_type":"spatial-orientation","time_elapsed":133616,"trial_index":13,"completionReason":"responded","responseRadians":-0.16030409742225177,"userId":"524d2272-d17f-42aa-b335-772a7ac10972","dateTime":"2021-11-11T16:25:43.087Z","isRelevant":true},{"timeLimit":194024,"internal_node_id":"0.0-0.0-15.0","rt":5859,"targetRadians":0.7446044805295828,"trial_type":"spatial-orientation","time_elapsed":140478,"trial_index":14,"completionReason":"responded","responseRadians":0.7896412460122914,"userId":"524d2272-d17f-42aa-b335-772a7ac10972","dateTime":"2021-11-11T16:25:49.949Z","isRelevant":true},{"timeLimit":187161,"internal_node_id":"0.0-0.0-16.0","rt":13229,"targetRadians":0.8197073925037974,"trial_type":"spatial-orientation","time_elapsed":154713,"trial_index":15,"completionReason":"responded","responseRadians":0.9458730873109258,"userId":"524d2272-d17f-42aa-b335-772a7ac10972","dateTime":"2021-11-11T16:26:04.184Z","isRelevant":true},{"timeLimit":172927,"internal_node_id":"0.0-0.0-17.0","rt":7759,"targetRadians":0.28589879982116495,"trial_type":"spatial-orientation","time_elapsed":163474,"trial_index":16,"completionReason":"responded","responseRadians":0.346171952100853,"userId":"524d2272-d17f-42aa-b335-772a7ac10972","dateTime":"2021-11-11T16:26:12.945Z","isRelevant":true},{"ua":"Mozilla/5.0 (Macintosh; Intel Mac OS X 10.15; rv:94.0) Gecko/20100101 Firefox/94.0","userId":"524d2272-d17f-42aa-b335-772a7ac10972","dateTime":"2021-11-11T16:26:12.946Z","isRelevant":false},{"taskStarted":true,"userId":"524d2272-d17f-42aa-b335-772a7ac10972","dateTime":"2021-11-13T00:25:07.546Z","isRelevant":false},{"internal_node_id":"0.0-0.0-1.0","rt":4271,"response":" ","trial_type":"html-keyboard-response","stimulus":"Thank you for finishing that task. The next task will be Spatial Orientation. <br> <br> This is a test of your ability to imagine different perspectives or orientations in space. In this task, you will see a picture of a scene of objects with a statement below it, together with an \"input circle\". You will be asked to imagine that you are standing at one object in the scene and facing another object. Your task is to draw a line showing the direction to a third object from this perspective. On each trial, you will be asked to imagine standing at a different first object, facing a different second object, and then to draw a line to a different third object. <br> <br> You respond by \"drawing\" a line on the arrow circle using the computer mouse. The center of the input circle represents your imagined location (at the first object) and the vertical line represents your imagined perspective (facing the second object). You need to draw the direction to a third object from this facing direction. <br> <br> <em>Press the space bar to continue.</em> ","time_elapsed":4271,"trial_index":0,"userId":"524d2272-d17f-42aa-b335-772a7ac10972","dateTime":"2021-11-13T00:25:11.817Z","isRelevant":false},{"internal_node_id":"0.0-0.0-2.0","rt":6582,"response":" ","trial_type":"html-keyboard-response","stimulus":"Look at the sample trial below. <img id=\"spatial-orientation-sample\" src=\"https://dev.heartbeamstudy.org/7def44c01e8a14587b8b.png\"/> In this example you are asked to imagine that you are standing at the <strong>bell</strong> facing the <strong>tree</strong>. Your task is to draw a line indicating the direction to the <strong>drum</strong>. In the sample trial this line has been drawn for you. In the test trials, your task is to draw this line on the arrow circle using the computer mouse. Can you see that if you were at the <strong>bell</strong> facing the <strong>tree</strong> the <strong>drum</strong> would be in the direction shown by the dotted line? <br> <br> Now you will begin practicing on the computer. <br> <br> <em>Press the space bar to continue.</em>","time_elapsed":10856,"trial_index":1,"userId":"524d2272-d17f-42aa-b335-772a7ac10972","dateTime":"2021-11-13T00:25:18.402Z","isRelevant":false},{"timeLimit":null,"internal_node_id":"0.0-0.0-3.0","rt":13506,"targetRadians":0.9624657945830842,"trial_type":"spatial-orientation","time_elapsed":25364,"trial_index":2,"completionReason":"responded","responseRadians":0.9396088365023089,"userId":"524d2272-d17f-42aa-b335-772a7ac10972","dateTime":"2021-11-13T00:25:32.910Z","isRelevant":false},{"internal_node_id":"0.0-0.0-4.0","rt":4442,"response":" ","trial_type":"html-keyboard-response","stimulus":"Now you will do the test. There are 12 items on this test. You will have 5 minutes to complete these items. <br> Please try to response accurately, but do not spend too much time on any one item. <br> <em>Press the space bar to begin the test trials.</em> ","time_elapsed":29808,"trial_index":3,"userId":"524d2272-d17f-42aa-b335-772a7ac10972","dateTime":"2021-11-13T00:25:37.354Z","isRelevant":false},{"trial_index":4,"internal_node_id":"0.0-0.0-5.0","trial_type":"call-function","time_elapsed":29809,"userId":"524d2272-d17f-42aa-b335-772a7ac10972","dateTime":"2021-11-13T00:25:37.355Z","isRelevant":false},{"timeLimit":299999,"internal_node_id":"0.0-0.0-6.0","rt":9390,"targetRadians":0.8555386561258853,"trial_type":"spatial-orientation","time_elapsed":40202,"trial_index":5,"completionReason":"responded","responseRadians":0.776615301410116,"userId":"524d2272-d17f-42aa-b335-772a7ac10972","dateTime":"2021-11-13T00:25:47.748Z","isRelevant":true},{"timeLimit":289606,"internal_node_id":"0.0-0.0-7.0","rt":11407,"targetRadians":2.92541464355029,"trial_type":"spatial-orientation","time_elapsed":52610,"trial_index":6,"completionReason":"responded","responseRadians":2.9901449586304025,"userId":"524d2272-d17f-42aa-b335-772a7ac10972","dateTime":"2021-11-13T00:26:00.156Z","isRelevant":true},{"timeLimit":277198,"internal_node_id":"0.0-0.0-8.0","rt":9844,"targetRadians":-2.322029589938814,"trial_type":"spatial-orientation","time_elapsed":63457,"trial_index":7,"completionReason":"responded","responseRadians":-2.4894451455618722,"userId":"524d2272-d17f-42aa-b335-772a7ac10972","dateTime":"2021-11-13T00:26:11.003Z","isRelevant":true},{"timeLimit":266351,"internal_node_id":"0.0-0.0-9.0","rt":11698,"targetRadians":-0.29660864163131295,"trial_type":"spatial-orientation","time_elapsed":76157,"trial_index":8,"completionReason":"responded","responseRadians":-0.4016649381557265,"userId":"524d2272-d17f-42aa-b335-772a7ac10972","dateTime":"2021-11-13T00:26:23.703Z","isRelevant":true},{"timeLimit":253651,"internal_node_id":"0.0-0.0-10.0","rt":8775,"targetRadians":0.9780048315396234,"trial_type":"spatial-orientation","time_elapsed":85935,"trial_index":9,"completionReason":"responded","responseRadians":1.11731449940174,"userId":"524d2272-d17f-42aa-b335-772a7ac10972","dateTime":"2021-11-13T00:26:33.482Z","isRelevant":true},{"timeLimit":243873,"internal_node_id":"0.0-0.0-11.0","rt":6827,"targetRadians":0.8120443072265926,"trial_type":"spatial-orientation","time_elapsed":93763,"trial_index":10,"completionReason":"responded","responseRadians":0.533240012747129,"userId":"524d2272-d17f-42aa-b335-772a7ac10972","dateTime":"2021-11-13T00:26:41.309Z","isRelevant":true},{"timeLimit":236045,"internal_node_id":"0.0-0.0-12.0","rt":8044,"targetRadians":1.3442756004689322,"trial_type":"spatial-orientation","time_elapsed":102811,"trial_index":11,"completionReason":"responded","responseRadians":1.5411750622219729,"userId":"524d2272-d17f-42aa-b335-772a7ac10972","dateTime":"2021-11-13T00:26:50.357Z","isRelevant":true},{"timeLimit":226997,"internal_node_id":"0.0-0.0-13.0","rt":5173,"targetRadians":0.9233789840740421,"trial_type":"spatial-orientation","time_elapsed":108985,"trial_index":12,"completionReason":"responded","responseRadians":0.9587016660699994,"userId":"524d2272-d17f-42aa-b335-772a7ac10972","dateTime":"2021-11-13T00:26:56.531Z","isRelevant":true},{"timeLimit":220823,"internal_node_id":"0.0-0.0-14.0","rt":9101,"targetRadians":-2.112731662828989,"trial_type":"spatial-orientation","time_elapsed":119091,"trial_index":13,"completionReason":"responded","responseRadians":-2.2808955039675753,"userId":"524d2272-d17f-42aa-b335-772a7ac10972","dateTime":"2021-11-13T00:27:06.637Z","isRelevant":true},{"timeLimit":210717,"internal_node_id":"0.0-0.0-15.0","rt":8939,"targetRadians":-1.9104973713779634,"trial_type":"spatial-orientation","time_elapsed":129035,"trial_index":14,"completionReason":"responded","responseRadians":-2.2190460521730957,"userId":"524d2272-d17f-42aa-b335-772a7ac10972","dateTime":"2021-11-13T00:27:16.582Z","isRelevant":true},{"timeLimit":200773,"internal_node_id":"0.0-0.0-16.0","rt":9165,"targetRadians":1.533843271555129,"trial_type":"spatial-orientation","time_elapsed":139207,"trial_index":15,"completionReason":"responded","responseRadians":1.4688250907018,"userId":"524d2272-d17f-42aa-b335-772a7ac10972","dateTime":"2021-11-13T00:27:26.753Z","isRelevant":true},{"timeLimit":190602,"internal_node_id":"0.0-0.0-17.0","rt":8378,"targetRadians":-2.502232007503411,"trial_type":"spatial-orientation","time_elapsed":148588,"trial_index":16,"completionReason":"responded","responseRadians":-2.7100193989447376,"userId":"524d2272-d17f-42aa-b335-772a7ac10972","dateTime":"2021-11-13T00:27:36.134Z","isRelevant":true},{"ua":"Mozilla/5.0 (Macintosh; Intel Mac OS X 10.15; rv:94.0) Gecko/20100101 Firefox/94.0","userId":"524d2272-d17f-42aa-b335-772a7ac10972","dateTime":"2021-11-13T00:27:36.135Z","isRelevant":false},{"taskStarted":true,"userId":"524d2272-d17f-42aa-b335-772a7ac10972","dateTime":"2021-11-13T22:31:39.902Z","isRelevant":false},{"internal_node_id":"0.0-0.0-1.0","rt":7584,"response":" ","trial_type":"html-keyboard-response","stimulus":"Thank you for finishing that task. The next task will be Spatial Orientation. <br> <br> This is a test of your ability to imagine different perspectives or orientations in space. In this task, you will see a picture of a scene of objects with a statement below it, together with an \"input circle\". You will be asked to imagine that you are standing at one object in the scene and facing another object. Your task is to draw a line showing the direction to a third object from this perspective. On each trial, you will be asked to imagine standing at a different first object, facing a different second object, and then to draw a line to a different third object. <br> <br> You respond by \"drawing\" a line on the arrow circle using the computer mouse. The center of the input circle represents your imagined location (at the first object) and the vertical line represents your imagined perspective (facing the second object). You need to draw the direction to a third object from this facing direction. <br> <br> <em>Press the space bar to continue.</em> ","time_elapsed":7586,"trial_index":0,"userId":"524d2272-d17f-42aa-b335-772a7ac10972","dateTime":"2021-11-13T22:31:47.488Z","isRelevant":false},{"internal_node_id":"0.0-0.0-2.0","rt":5830,"response":" ","trial_type":"html-keyboard-response","stimulus":"Look at the sample trial below. <img id=\"spatial-orientation-sample\" src=\"https://dev.heartbeamstudy.org/7def44c01e8a14587b8b.png\"/> In this example you are asked to imagine that you are standing at the <strong>bell</strong> facing the <strong>tree</strong>. Your task is to draw a line indicating the direction to the <strong>drum</strong>. In the sample trial this line has been drawn for you. In the test trials, your task is to draw this line on the arrow circle using the computer mouse. Can you see that if you were at the <strong>bell</strong> facing the <strong>tree</strong> the <strong>drum</strong> would be in the direction shown by the dotted line? <br> <br> Now you will begin practicing on the computer. <br> <br> <em>Press the space bar to continue.</em>","time_elapsed":13417,"trial_index":1,"userId":"524d2272-d17f-42aa-b335-772a7ac10972","dateTime":"2021-11-13T22:31:53.320Z","isRelevant":false},{"timeLimit":null,"internal_node_id":"0.0-0.0-3.0","rt":8986,"targetRadians":0.9624657945830842,"trial_type":"spatial-orientation","time_elapsed":23414,"trial_index":2,"completionReason":"responded","responseRadians":0.9592934652264108,"userId":"524d2272-d17f-42aa-b335-772a7ac10972","dateTime":"2021-11-13T22:32:03.316Z","isRelevant":false},{"internal_node_id":"0.0-0.0-4.0","rt":1858,"response":" ","trial_type":"html-keyboard-response","stimulus":"Now you will do the test. There are 12 items on this test. You will have 5 minutes to complete these items. <br> Please try to response accurately, but do not spend too much time on any one item. <br> <em>Press the space bar to begin the test trials.</em> ","time_elapsed":25276,"trial_index":3,"userId":"524d2272-d17f-42aa-b335-772a7ac10972","dateTime":"2021-11-13T22:32:05.178Z","isRelevant":false},{"trial_index":4,"internal_node_id":"0.0-0.0-5.0","trial_type":"call-function","time_elapsed":25278,"userId":"524d2272-d17f-42aa-b335-772a7ac10972","dateTime":"2021-11-13T22:32:05.180Z","isRelevant":false},{"timeLimit":299998,"internal_node_id":"0.0-0.0-6.0","rt":11466,"targetRadians":1.0454225350538513,"trial_type":"spatial-orientation","time_elapsed":37754,"trial_index":5,"completionReason":"responded","responseRadians":0.9871427584954335,"userId":"524d2272-d17f-42aa-b335-772a7ac10972","dateTime":"2021-11-13T22:32:17.656Z","isRelevant":true},{"timeLimit":287523,"internal_node_id":"0.0-0.0-7.0","rt":5825,"targetRadians":-2.9191816348010184,"trial_type":"spatial-orientation","time_elapsed":44585,"trial_index":6,"completionReason":"responded","responseRadians":-2.7229751782350684,"userId":"524d2272-d17f-42aa-b335-772a7ac10972","dateTime":"2021-11-13T22:32:24.487Z","isRelevant":true},{"timeLimit":280691,"internal_node_id":"0.0-0.0-8.0","rt":7962,"targetRadians":-0.13455719304035302,"trial_type":"spatial-orientation","time_elapsed":53553,"trial_index":7,"completionReason":"responded","responseRadians":0.08166320366244391,"userId":"524d2272-d17f-42aa-b335-772a7ac10972","dateTime":"2021-11-13T22:32:33.455Z","isRelevant":true},{"timeLimit":271723,"internal_node_id":"0.0-0.0-9.0","rt":9729,"targetRadians":-0.9144235802768034,"trial_type":"spatial-orientation","time_elapsed":64285,"trial_index":8,"completionReason":"responded","responseRadians":-0.7785151637076142,"userId":"524d2272-d17f-42aa-b335-772a7ac10972","dateTime":"2021-11-13T22:32:44.187Z","isRelevant":true},{"timeLimit":260992,"internal_node_id":"0.0-0.0-10.0","rt":9314,"targetRadians":-1.0412131221608958,"trial_type":"spatial-orientation","time_elapsed":74601,"trial_index":9,"completionReason":"responded","responseRadians":-1.3636414091619897,"userId":"524d2272-d17f-42aa-b335-772a7ac10972","dateTime":"2021-11-13T22:32:54.503Z","isRelevant":true},{"timeLimit":250675,"internal_node_id":"0.0-0.0-11.0","rt":8843,"targetRadians":-0.21909334913001777,"trial_type":"spatial-orientation","time_elapsed":84447,"trial_index":10,"completionReason":"responded","responseRadians":-0.43358119667359946,"userId":"524d2272-d17f-42aa-b335-772a7ac10972","dateTime":"2021-11-13T22:33:04.349Z","isRelevant":true},{"timeLimit":240830,"internal_node_id":"0.0-0.0-12.0","rt":7974,"targetRadians":0.5358874732441836,"trial_type":"spatial-orientation","time_elapsed":93425,"trial_index":11,"completionReason":"responded","responseRadians":0.4250023375315156,"userId":"524d2272-d17f-42aa-b335-772a7ac10972","dateTime":"2021-11-13T22:33:13.327Z","isRelevant":true},{"timeLimit":231852,"internal_node_id":"0.0-0.0-13.0","rt":9876,"targetRadians":2.9191816348010184,"trial_type":"spatial-orientation","time_elapsed":104306,"trial_index":12,"completionReason":"responded","responseRadians":-2.8066101173941895,"userId":"524d2272-d17f-42aa-b335-772a7ac10972","dateTime":"2021-11-13T22:33:24.208Z","isRelevant":true},{"timeLimit":220971,"internal_node_id":"0.0-0.0-14.0","rt":7352,"targetRadians":1.138558225683425,"trial_type":"spatial-orientation","time_elapsed":112663,"trial_index":13,"completionReason":"responded","responseRadians":1.1402683852625688,"userId":"524d2272-d17f-42aa-b335-772a7ac10972","dateTime":"2021-11-13T22:33:32.565Z","isRelevant":true},{"timeLimit":212614,"internal_node_id":"0.0-0.0-15.0","rt":12383,"targetRadians":-0.11133467684744937,"trial_type":"spatial-orientation","time_elapsed":126050,"trial_index":14,"completionReason":"responded","responseRadians":-0.161621144450786,"userId":"524d2272-d17f-42aa-b335-772a7ac10972","dateTime":"2021-11-13T22:33:45.952Z","isRelevant":true},{"timeLimit":199228,"internal_node_id":"0.0-0.0-16.0","rt":6972,"targetRadians":-0.9030949126005827,"trial_type":"spatial-orientation","time_elapsed":134026,"trial_index":15,"completionReason":"responded","responseRadians":-1.369632427667437,"userId":"524d2272-d17f-42aa-b335-772a7ac10972","dateTime":"2021-11-13T22:33:53.929Z","isRelevant":true},{"timeLimit":191251,"internal_node_id":"0.0-0.0-17.0","rt":7006,"targetRadians":0.4325012627040987,"trial_type":"spatial-orientation","time_elapsed":142037,"trial_index":16,"completionReason":"responded","responseRadians":0.6702626355229756,"userId":"524d2272-d17f-42aa-b335-772a7ac10972","dateTime":"2021-11-13T22:34:01.939Z","isRelevant":true},{"ua":"Mozilla/5.0 (Macintosh; Intel Mac OS X 10.15; rv:94.0) Gecko/20100101 Firefox/94.0","userId":"524d2272-d17f-42aa-b335-772a7ac10972","dateTime":"2021-11-13T22:34:01.941Z","isRelevant":false},{"taskStarted":true,"userId":"524d2272-d17f-42aa-b335-772a7ac10972","dateTime":"2021-11-17T05:27:12.064Z","isRelevant":false},{"internal_node_id":"0.0-0.0-1.0","rt":10560,"response":" ","trial_type":"html-keyboard-response","stimulus":"Thank you for finishing that task. The next task will be Spatial Orientation. <br> <br> This is a test of your ability to imagine different perspectives or orientations in space. In this task, you will see a picture of a scene of objects with a statement below it, together with an \"input circle\". You will be asked to imagine that you are standing at one object in the scene and facing another object. Your task is to draw a line showing the direction to a third object from this perspective. On each trial, you will be asked to imagine standing at a different first object, facing a different second object, and then to draw a line to a different third object. <br> <br> You respond by \"drawing\" a line on the arrow circle using the computer mouse. The center of the input circle represents your imagined location (at the first object) and the vertical line represents your imagined perspective (facing the second object). You need to draw the direction to a third object from this facing direction. <br> <br> <em>Press the space bar to continue.</em> ","time_elapsed":10564,"trial_index":0,"userId":"524d2272-d17f-42aa-b335-772a7ac10972","dateTime":"2021-11-17T05:27:22.629Z","isRelevant":false},{"internal_node_id":"0.0-0.0-2.0","rt":4118,"response":" ","trial_type":"html-keyboard-response","stimulus":"Look at the sample trial below. <img id=\"spatial-orientation-sample\" src=\"https://dev.heartbeamstudy.org/7def44c01e8a14587b8b.png\"/> In this example you are asked to imagine that you are standing at the <strong>bell</strong> facing the <strong>tree</strong>. Your task is to draw a line indicating the direction to the <strong>drum</strong>. In the sample trial this line has been drawn for you. In the test trials, your task is to draw this line on the arrow circle using the computer mouse. Can you see that if you were at the <strong>bell</strong> facing the <strong>tree</strong> the <strong>drum</strong> would be in the direction shown by the dotted line? <br> <br> Now you will begin practicing on the computer. <br> <br> <em>Press the space bar to continue.</em>","time_elapsed":14685,"trial_index":1,"userId":"524d2272-d17f-42aa-b335-772a7ac10972","dateTime":"2021-11-17T05:27:26.749Z","isRelevant":false},{"timeLimit":null,"internal_node_id":"0.0-0.0-3.0","rt":15959,"targetRadians":0.9624657945830842,"trial_type":"spatial-orientation","time_elapsed":31652,"trial_index":2,"completionReason":"responded","responseRadians":0.9546909516626871,"userId":"524d2272-d17f-42aa-b335-772a7ac10972","dateTime":"2021-11-17T05:27:43.717Z","isRelevant":false},{"internal_node_id":"0.0-0.0-4.0","rt":1095,"response":" ","trial_type":"html-keyboard-response","stimulus":"Now you will do the test. There are 12 items on this test. You will have 5 minutes to complete these items. <br> Please try to response accurately, but do not spend too much time on any one item. <br> <em>Press the space bar to begin the test trials.</em> ","time_elapsed":32749,"trial_index":3,"userId":"524d2272-d17f-42aa-b335-772a7ac10972","dateTime":"2021-11-17T05:27:44.813Z","isRelevant":false},{"trial_index":4,"internal_node_id":"0.0-0.0-5.0","trial_type":"call-function","time_elapsed":32751,"userId":"524d2272-d17f-42aa-b335-772a7ac10972","dateTime":"2021-11-17T05:27:44.815Z","isRelevant":false},{"timeLimit":299998,"internal_node_id":"0.0-0.0-6.0","rt":9079,"targetRadians":0.21340791357408087,"trial_type":"spatial-orientation","time_elapsed":42833,"trial_index":5,"completionReason":"responded","responseRadians":0.3257989485373644,"userId":"524d2272-d17f-42aa-b335-772a7ac10972","dateTime":"2021-11-17T05:27:54.897Z","isRelevant":true},{"timeLimit":289917,"internal_node_id":"0.0-0.0-7.0","rt":9247,"targetRadians":-0.5748340449647183,"trial_type":"spatial-orientation","time_elapsed":53082,"trial_index":6,"completionReason":"responded","responseRadians":-0.5098867774705743,"userId":"524d2272-d17f-42aa-b335-772a7ac10972","dateTime":"2021-11-17T05:28:05.146Z","isRelevant":true},{"timeLimit":279667,"internal_node_id":"0.0-0.0-8.0","rt":7208,"targetRadians":1.4543489104226242,"trial_type":"spatial-orientation","time_elapsed":61293,"trial_index":7,"completionReason":"responded","responseRadians":1.597019422330287,"userId":"524d2272-d17f-42aa-b335-772a7ac10972","dateTime":"2021-11-17T05:28:13.357Z","isRelevant":true},{"timeLimit":271456,"internal_node_id":"0.0-0.0-9.0","rt":6625,"targetRadians":-0.08785382574842161,"trial_type":"spatial-orientation","time_elapsed":68924,"trial_index":8,"completionReason":"responded","responseRadians":0.24360211795491443,"userId":"524d2272-d17f-42aa-b335-772a7ac10972","dateTime":"2021-11-17T05:28:20.988Z","isRelevant":true},{"timeLimit":263826,"internal_node_id":"0.0-0.0-10.0","rt":8186,"targetRadians":-1.5688737049780468,"trial_type":"spatial-orientation","time_elapsed":78114,"trial_index":9,"completionReason":"responded","responseRadians":-1.4847344463365393,"userId":"524d2272-d17f-42aa-b335-772a7ac10972","dateTime":"2021-11-17T05:28:30.178Z","isRelevant":true},{"timeLimit":254636,"internal_node_id":"0.0-0.0-11.0","rt":6703,"targetRadians":0.4347264547326954,"trial_type":"spatial-orientation","time_elapsed":85823,"trial_index":10,"completionReason":"responded","responseRadians":0.4549136828858125,"userId":"524d2272-d17f-42aa-b335-772a7ac10972","dateTime":"2021-11-17T05:28:37.887Z","isRelevant":true},{"timeLimit":246927,"internal_node_id":"0.0-0.0-12.0","rt":10765,"targetRadians":-1.1748596005728817,"trial_type":"spatial-orientation","time_elapsed":97596,"trial_index":11,"completionReason":"responded","responseRadians":-0.9161460365934913,"userId":"524d2272-d17f-42aa-b335-772a7ac10972","dateTime":"2021-11-17T05:28:49.660Z","isRelevant":true},{"timeLimit":235155,"internal_node_id":"0.0-0.0-13.0","rt":10068,"targetRadians":1.1118119198859822,"trial_type":"spatial-orientation","time_elapsed":108669,"trial_index":12,"completionReason":"responded","responseRadians":1.0264112573835222,"userId":"524d2272-d17f-42aa-b335-772a7ac10972","dateTime":"2021-11-17T05:29:00.733Z","isRelevant":true},{"timeLimit":224081,"internal_node_id":"0.0-0.0-14.0","rt":9830,"targetRadians":-0.8198496785781624,"trial_type":"spatial-orientation","time_elapsed":119504,"trial_index":13,"completionReason":"responded","responseRadians":-0.8596410760891989,"userId":"524d2272-d17f-42aa-b335-772a7ac10972","dateTime":"2021-11-17T05:29:11.568Z","isRelevant":true},{"timeLimit":213246,"internal_node_id":"0.0-0.0-15.0","rt":9663,"targetRadians":1.074972213052343,"trial_type":"spatial-orientation","time_elapsed":130171,"trial_index":14,"completionReason":"responded","responseRadians":1.4496529639772773,"userId":"524d2272-d17f-42aa-b335-772a7ac10972","dateTime":"2021-11-17T05:29:22.235Z","isRelevant":true},{"timeLimit":202579,"internal_node_id":"0.0-0.0-16.0","rt":7962,"targetRadians":1.9067131673282576,"trial_type":"spatial-orientation","time_elapsed":139135,"trial_index":15,"completionReason":"responded","responseRadians":1.9352868245815917,"userId":"524d2272-d17f-42aa-b335-772a7ac10972","dateTime":"2021-11-17T05:29:31.199Z","isRelevant":true},{"timeLimit":193614,"internal_node_id":"0.0-0.0-17.0","rt":12734,"targetRadians":1.528801975278525,"trial_type":"spatial-orientation","time_elapsed":152872,"trial_index":16,"completionReason":"responded","responseRadians":1.2562626742931138,"userId":"524d2272-d17f-42aa-b335-772a7ac10972","dateTime":"2021-11-17T05:29:44.936Z","isRelevant":true},{"ua":"Mozilla/5.0 (Macintosh; Intel Mac OS X 10.15; rv:94.0) Gecko/20100101 Firefox/94.0","userId":"524d2272-d17f-42aa-b335-772a7ac10972","dateTime":"2021-11-17T05:29:44.937Z","isRelevant":false},{"taskStarted":true,"userId":"118a2724-6420-41e6-af9f-42da893ea092","dateTime":"2021-11-07T01:46:48.389Z","isRelevant":false},{"internal_node_id":"0.0-0.0-1.0","rt":3579.7999999970198,"response":" ","trial_type":"html-keyboard-response","stimulus":"Thank you for finishing that task. The next task will be Spatial Orientation. <br> <br> This is a test of your ability to imagine different perspectives or orientations in space. In this task, you will see a picture of a scene of objects with a statement below it, together with an \"input circle\". You will be asked to imagine that you are standing at one object in the scene and facing another object. Your task is to draw a line showing the direction to a third object from this perspective. On each trial, you will be asked to imagine standing at a different first object, facing a different second object, and then to draw a line to a different third object. <br> <br> You respond by \"drawing\" a line on the arrow circle using the computer mouse. The center of the input circle represents your imagined location (at the first object) and the vertical line represents your imagined perspective (facing the second object). You need to draw the direction to a third object from this facing direction. <br> <br> Look at the sample trial below. In this example you are asked to imagine that you are standing at the <strong>bell</strong> facing the <strong>tree</strong>. Your task is to draw a line indicating the direction to the <strong>drum</strong>. In the sample trial this line has been drawn for you. In the test trials, your task is to draw this line on the arrow circle using the computer mouse. Can you see that if you were at the <strong>bell</strong> facing the <strong>tree</strong> the <strong>drum</strong> would be in the direction show by the dotted line? <br> <br> Now you will begin practicing on the computer. <br> <br> <em>Press the space bar to continue.</em> ","time_elapsed":3582,"trial_index":0,"userId":"118a2724-6420-41e6-af9f-42da893ea092","dateTime":"2021-11-07T01:46:51.971Z","isRelevant":false},{"timeLimit":null,"internal_node_id":"0.0-0.0-2.0","rt":2913.4000000059605,"targetRadians":0.9624657945830842,"trial_type":"spatial-orientation","time_elapsed":7504,"trial_index":1,"completionReason":"responded","responseRadians":0.96427732117932,"userId":"118a2724-6420-41e6-af9f-42da893ea092","dateTime":"2021-11-07T01:46:55.894Z","isRelevant":false},{"internal_node_id":"0.0-0.0-3.0","rt":1838.2000000029802,"response":" ","trial_type":"html-keyboard-response","stimulus":"Now you will do three practice trials. When each trial appears, move the line and click to indicate your answer. <br> Once you have entered your answer the correct answer will be shown in red. <br> <em>Press the space bar to begin the practice trials.</em> ","time_elapsed":9347,"trial_index":2,"userId":"118a2724-6420-41e6-af9f-42da893ea092","dateTime":"2021-11-07T01:46:57.737Z","isRelevant":false},{"timeLimit":null,"internal_node_id":"0.0-0.0-4.0","rt":6597.100000008941,"targetRadians":-1.0086842634230553,"trial_type":"spatial-orientation","time_elapsed":16953,"trial_index":3,"completionReason":"responded","responseRadians":-0.6418829872281916,"userId":"118a2724-6420-41e6-af9f-42da893ea092","dateTime":"2021-11-07T01:47:05.343Z","isRelevant":false},{"timeLimit":null,"internal_node_id":"0.0-0.0-5.0","rt":8198.800000011921,"targetRadians":0.5839296875504644,"trial_type":"spatial-orientation","time_elapsed":26159,"trial_index":4,"completionReason":"responded","responseRadians":0.434244320796801,"userId":"118a2724-6420-41e6-af9f-42da893ea092","dateTime":"2021-11-07T01:47:14.550Z","isRelevant":false},{"timeLimit":null,"internal_node_id":"0.0-0.0-6.0","rt":5922.29999999702,"targetRadians":-0.8795148654579059,"trial_type":"spatial-orientation","time_elapsed":33092,"trial_index":5,"completionReason":"responded","responseRadians":-1.983206768392284,"userId":"118a2724-6420-41e6-af9f-42da893ea092","dateTime":"2021-11-07T01:47:21.482Z","isRelevant":false},{"internal_node_id":"0.0-0.0-7.0","rt":5817.5,"response":" ","trial_type":"html-keyboard-response","stimulus":"Now you will do the test. There are 12 items on this test. You will have 5 minutes to complete these items. <br> Please try to response accurately, but do not spend too much time on any one item. <br> <em>Press the space bar to begin the test trials.</em> ","time_elapsed":38914,"trial_index":6,"userId":"118a2724-6420-41e6-af9f-42da893ea092","dateTime":"2021-11-07T01:47:27.303Z","isRelevant":false},{"trial_index":7,"internal_node_id":"0.0-0.0-8.0","trial_type":"call-function","time_elapsed":38918,"userId":"118a2724-6420-41e6-af9f-42da893ea092","dateTime":"2021-11-07T01:47:27.307Z","isRelevant":false},{"timeLimit":299998,"internal_node_id":"0.0-0.0-9.0","rt":6905.5999999940395,"targetRadians":-0.44595476693421093,"trial_type":"spatial-orientation","time_elapsed":46830,"trial_index":8,"completionReason":"responded","responseRadians":-0.5809230758068725,"userId":"118a2724-6420-41e6-af9f-42da893ea092","dateTime":"2021-11-07T01:47:35.220Z","isRelevant":true},{"timeLimit":292083,"internal_node_id":"0.0-0.0-10.0","rt":7832.5999999940395,"targetRadians":0.4742324526278433,"trial_type":"spatial-orientation","time_elapsed":55673,"trial_index":9,"completionReason":"responded","responseRadians":0.8614841837185339,"userId":"118a2724-6420-41e6-af9f-42da893ea092","dateTime":"2021-11-07T01:47:44.063Z","isRelevant":true},{"timeLimit":283239,"internal_node_id":"0.0-0.0-11.0","rt":8280.5,"targetRadians":1.898504206311071,"trial_type":"spatial-orientation","time_elapsed":64965,"trial_index":10,"completionReason":"responded","responseRadians":0.3732513653478677,"userId":"118a2724-6420-41e6-af9f-42da893ea092","dateTime":"2021-11-07T01:47:53.356Z","isRelevant":true},{"timeLimit":273943,"internal_node_id":"0.0-0.0-12.0","rt":10122.40000000596,"targetRadians":-2.492252689052089,"trial_type":"spatial-orientation","time_elapsed":76100,"trial_index":11,"completionReason":"responded","responseRadians":-0.2063238940297175,"userId":"118a2724-6420-41e6-af9f-42da893ea092","dateTime":"2021-11-07T01:48:04.490Z","isRelevant":true},{"timeLimit":262812,"internal_node_id":"0.0-0.0-13.0","rt":7156.20000000298,"targetRadians":-2.6691413797901933,"trial_type":"spatial-orientation","time_elapsed":84266,"trial_index":12,"completionReason":"responded","responseRadians":0.6449673834022964,"userId":"118a2724-6420-41e6-af9f-42da893ea092","dateTime":"2021-11-07T01:48:12.655Z","isRelevant":true},{"timeLimit":254647,"internal_node_id":"0.0-0.0-14.0","rt":8120.0999999940395,"targetRadians":1.624119345987489,"trial_type":"spatial-orientation","time_elapsed":93392,"trial_index":13,"completionReason":"responded","responseRadians":0.8090158184023988,"userId":"118a2724-6420-41e6-af9f-42da893ea092","dateTime":"2021-11-07T01:48:21.782Z","isRelevant":true},{"timeLimit":245520,"internal_node_id":"0.0-0.0-15.0","rt":9231.89999999106,"targetRadians":-2.92541464355029,"trial_type":"spatial-orientation","time_elapsed":103633,"trial_index":14,"completionReason":"responded","responseRadians":2.5428087966238104,"userId":"118a2724-6420-41e6-af9f-42da893ea092","dateTime":"2021-11-07T01:48:32.023Z","isRelevant":true},{"timeLimit":235280,"internal_node_id":"0.0-0.0-16.0","rt":3730.5,"targetRadians":-0.7171802924858609,"trial_type":"spatial-orientation","time_elapsed":108371,"trial_index":15,"completionReason":"responded","responseRadians":2.60254866827013,"userId":"118a2724-6420-41e6-af9f-42da893ea092","dateTime":"2021-11-07T01:48:36.761Z","isRelevant":true},{"timeLimit":230542,"internal_node_id":"0.0-0.0-17.0","rt":10971.5,"targetRadians":1.9104973713779634,"trial_type":"spatial-orientation","time_elapsed":120350,"trial_index":16,"completionReason":"responded","responseRadians":0.45967937586177277,"userId":"118a2724-6420-41e6-af9f-42da893ea092","dateTime":"2021-11-07T01:48:48.740Z","isRelevant":true},{"timeLimit":218563,"internal_node_id":"0.0-0.0-18.0","rt":7639.20000000298,"targetRadians":1.6318939858047552,"trial_type":"spatial-orientation","time_elapsed":129000,"trial_index":17,"completionReason":"responded","responseRadians":1.381899145917274,"userId":"118a2724-6420-41e6-af9f-42da893ea092","dateTime":"2021-11-07T01:48:57.390Z","isRelevant":true},{"timeLimit":209913,"internal_node_id":"0.0-0.0-19.0","rt":8761.59999999404,"targetRadians":-1.5920697128189578,"trial_type":"spatial-orientation","time_elapsed":138772,"trial_index":18,"completionReason":"responded","responseRadians":-0.7684506335910434,"userId":"118a2724-6420-41e6-af9f-42da893ea092","dateTime":"2021-11-07T01:49:07.162Z","isRelevant":true},{"timeLimit":200140,"internal_node_id":"0.0-0.0-20.0","rt":7428.79999999702,"targetRadians":0.7103112782964007,"trial_type":"spatial-orientation","time_elapsed":147211,"trial_index":19,"completionReason":"responded","responseRadians":1.4056476493802699,"userId":"118a2724-6420-41e6-af9f-42da893ea092","dateTime":"2021-11-07T01:49:15.601Z","isRelevant":true},{"ua":"Mozilla/5.0 (Macintosh; Intel Mac OS X 10_15_7) AppleWebKit/537.36 (KHTML, like Gecko) Chrome/95.0.4638.54 Safari/537.36","userId":"118a2724-6420-41e6-af9f-42da893ea092","dateTime":"2021-11-07T01:49:15.605Z","isRelevant":false},{"taskStarted":true,"userId":"118a2724-6420-41e6-af9f-42da893ea092","dateTime":"2021-11-09T06:51:54.189Z","isRelevant":false},{"internal_node_id":"0.0-0.0-1.0","rt":5244.300000011921,"response":" ","trial_type":"html-keyboard-response","stimulus":"Thank you for finishing that task. The next task will be Spatial Orientation. <br> <br> This is a test of your ability to imagine different perspectives or orientations in space. In this task, you will see a picture of a scene of objects with a statement below it, together with an \"input circle\". You will be asked to imagine that you are standing at one object in the scene and facing another object. Your task is to draw a line showing the direction to a third object from this perspective. On each trial, you will be asked to imagine standing at a different first object, facing a different second object, and then to draw a line to a different third object. <br> <br> You respond by \"drawing\" a line on the arrow circle using the computer mouse. The center of the input circle represents your imagined location (at the first object) and the vertical line represents your imagined perspective (facing the second object). You need to draw the direction to a third object from this facing direction. <br> <br> <em>Press the space bar to continue.</em> ","time_elapsed":5246,"trial_index":0,"userId":"118a2724-6420-41e6-af9f-42da893ea092","dateTime":"2021-11-09T06:51:59.436Z","isRelevant":false},{"internal_node_id":"0.0-0.0-2.0","rt":4791.9000000059605,"response":" ","trial_type":"html-keyboard-response","stimulus":"Look at the sample trial below. <img id=\"spatial-orientation-sample\" src=\"https://dev.heartbeamstudy.org/7def44c01e8a14587b8b.png\"/> In this example you are asked to imagine that you are standing at the <strong>bell</strong> facing the <strong>tree</strong>. Your task is to draw a line indicating the direction to the <strong>drum</strong>. In the sample trial this line has been drawn for you. In the test trials, your task is to draw this line on the arrow circle using the computer mouse. Can you see that if you were at the <strong>bell</strong> facing the <strong>tree</strong> the <strong>drum</strong> would be in the direction shown by the dotted line? <br> <br> Now you will begin practicing on the computer. <br> <br> <em>Press the space bar to continue.</em>","time_elapsed":10042,"trial_index":1,"userId":"118a2724-6420-41e6-af9f-42da893ea092","dateTime":"2021-11-09T06:52:04.232Z","isRelevant":false},{"timeLimit":null,"internal_node_id":"0.0-0.0-3.0","rt":3551.5,"targetRadians":0.9624657945830842,"trial_type":"spatial-orientation","time_elapsed":14606,"trial_index":2,"completionReason":"responded","responseRadians":0.9543408605479022,"userId":"118a2724-6420-41e6-af9f-42da893ea092","dateTime":"2021-11-09T06:52:08.796Z","isRelevant":false},{"internal_node_id":"0.0-0.0-4.0","rt":1848.3999999761581,"response":" ","trial_type":"html-keyboard-response","stimulus":"Now you will do three practice trials. When each trial appears, move the line and click to indicate your answer. <br> Once you have entered your answer the correct answer will be shown in red. <br> <em>Press the space bar to begin the practice trials.</em> ","time_elapsed":16456,"trial_index":3,"userId":"118a2724-6420-41e6-af9f-42da893ea092","dateTime":"2021-11-09T06:52:10.646Z","isRelevant":false},{"timeLimit":null,"internal_node_id":"0.0-0.0-5.0","rt":7337.700000017881,"targetRadians":-1.0086842634230553,"trial_type":"spatial-orientation","time_elapsed":24799,"trial_index":4,"completionReason":"responded","responseRadians":-0.724250000748147,"userId":"118a2724-6420-41e6-af9f-42da893ea092","dateTime":"2021-11-09T06:52:18.989Z","isRelevant":false},{"timeLimit":null,"internal_node_id":"0.0-0.0-6.0","rt":5854.5999999940395,"targetRadians":0.5839296875504644,"trial_type":"spatial-orientation","time_elapsed":31661,"trial_index":5,"completionReason":"responded","responseRadians":0.8938149103515728,"userId":"118a2724-6420-41e6-af9f-42da893ea092","dateTime":"2021-11-09T06:52:25.851Z","isRelevant":false},{"timeLimit":null,"internal_node_id":"0.0-0.0-7.0","rt":8143.5,"targetRadians":-0.8795148654579059,"trial_type":"spatial-orientation","time_elapsed":40813,"trial_index":6,"completionReason":"responded","responseRadians":-1.2465268860378775,"userId":"118a2724-6420-41e6-af9f-42da893ea092","dateTime":"2021-11-09T06:52:35.002Z","isRelevant":false},{"internal_node_id":"0.0-0.0-8.0","rt":3539.300000011921,"response":" ","trial_type":"html-keyboard-response","stimulus":"Now you will do the test. There are 12 items on this test. You will have 5 minutes to complete these items. <br> Please try to response accurately, but do not spend too much time on any one item. <br> <em>Press the space bar to begin the test trials.</em> ","time_elapsed":44357,"trial_index":7,"userId":"118a2724-6420-41e6-af9f-42da893ea092","dateTime":"2021-11-09T06:52:38.547Z","isRelevant":false},{"trial_index":8,"internal_node_id":"0.0-0.0-9.0","trial_type":"call-function","time_elapsed":44364,"userId":"118a2724-6420-41e6-af9f-42da893ea092","dateTime":"2021-11-09T06:52:38.553Z","isRelevant":false},{"timeLimit":299998,"internal_node_id":"0.0-0.0-10.0","rt":2984.600000023842,"targetRadians":-0.7171802924858609,"trial_type":"spatial-orientation","time_elapsed":48355,"trial_index":9,"completionReason":"responded","responseRadians":-1.3348380375627464,"userId":"118a2724-6420-41e6-af9f-42da893ea092","dateTime":"2021-11-09T06:52:42.545Z","isRelevant":true},{"timeLimit":296005,"internal_node_id":"0.0-0.0-11.0","rt":5891.799999982119,"targetRadians":-2.6691413797901933,"trial_type":"spatial-orientation","time_elapsed":55255,"trial_index":10,"completionReason":"responded","responseRadians":-0.6283316024340097,"userId":"118a2724-6420-41e6-af9f-42da893ea092","dateTime":"2021-11-09T06:52:49.445Z","isRelevant":true},{"timeLimit":289103,"internal_node_id":"0.0-0.0-12.0","rt":4582.5,"targetRadians":-1.5920697128189578,"trial_type":"spatial-orientation","time_elapsed":60845,"trial_index":11,"completionReason":"responded","responseRadians":-1.0414539162416259,"userId":"118a2724-6420-41e6-af9f-42da893ea092","dateTime":"2021-11-09T06:52:55.035Z","isRelevant":true},{"timeLimit":283514,"internal_node_id":"0.0-0.0-13.0","rt":6214.600000023842,"targetRadians":1.9104973713779634,"trial_type":"spatial-orientation","time_elapsed":68066,"trial_index":12,"completionReason":"responded","responseRadians":2.5086412664332,"userId":"118a2724-6420-41e6-af9f-42da893ea092","dateTime":"2021-11-09T06:53:02.256Z","isRelevant":true},{"timeLimit":276293,"internal_node_id":"0.0-0.0-14.0","rt":6694.799999982119,"targetRadians":1.6318939858047552,"trial_type":"spatial-orientation","time_elapsed":75772,"trial_index":13,"completionReason":"responded","responseRadians":1.3239658139330621,"userId":"118a2724-6420-41e6-af9f-42da893ea092","dateTime":"2021-11-09T06:53:09.962Z","isRelevant":true},{"timeLimit":268586,"internal_node_id":"0.0-0.0-15.0","rt":5759.699999988079,"targetRadians":0.7103112782964007,"trial_type":"spatial-orientation","time_elapsed":82539,"trial_index":14,"completionReason":"responded","responseRadians":1.3239658139330621,"userId":"118a2724-6420-41e6-af9f-42da893ea092","dateTime":"2021-11-09T06:53:16.729Z","isRelevant":true},{"timeLimit":261821,"internal_node_id":"0.0-0.0-16.0","rt":7973.300000011921,"targetRadians":-2.92541464355029,"trial_type":"spatial-orientation","time_elapsed":91522,"trial_index":15,"completionReason":"responded","responseRadians":-2.92792366604981,"userId":"118a2724-6420-41e6-af9f-42da893ea092","dateTime":"2021-11-09T06:53:25.712Z","isRelevant":true},{"timeLimit":252837,"internal_node_id":"0.0-0.0-17.0","rt":6528,"targetRadians":0.4742324526278433,"trial_type":"spatial-orientation","time_elapsed":99059,"trial_index":16,"completionReason":"responded","responseRadians":2.643770320972792,"userId":"118a2724-6420-41e6-af9f-42da893ea092","dateTime":"2021-11-09T06:53:33.249Z","isRelevant":true},{"timeLimit":245300,"internal_node_id":"0.0-0.0-18.0","rt":8168.5,"targetRadians":1.624119345987489,"trial_type":"spatial-orientation","time_elapsed":108237,"trial_index":17,"completionReason":"responded","responseRadians":0.5280744484263598,"userId":"118a2724-6420-41e6-af9f-42da893ea092","dateTime":"2021-11-09T06:53:42.427Z","isRelevant":true},{"timeLimit":236120,"internal_node_id":"0.0-0.0-19.0","rt":6320.199999988079,"targetRadians":1.898504206311071,"trial_type":"spatial-orientation","time_elapsed":115565,"trial_index":18,"completionReason":"responded","responseRadians":0.31184988780865364,"userId":"118a2724-6420-41e6-af9f-42da893ea092","dateTime":"2021-11-09T06:53:49.755Z","isRelevant":true},{"timeLimit":228794,"internal_node_id":"0.0-0.0-20.0","rt":5755.4000000059605,"targetRadians":-0.44595476693421093,"trial_type":"spatial-orientation","time_elapsed":122328,"trial_index":19,"completionReason":"responded","responseRadians":-0.7889069209279869,"userId":"118a2724-6420-41e6-af9f-42da893ea092","dateTime":"2021-11-09T06:53:56.518Z","isRelevant":true},{"timeLimit":222030,"internal_node_id":"0.0-0.0-21.0","rt":7437.800000011921,"targetRadians":-2.492252689052089,"trial_type":"spatial-orientation","time_elapsed":130778,"trial_index":20,"completionReason":"responded","responseRadians":2.8840492066951917,"userId":"118a2724-6420-41e6-af9f-42da893ea092","dateTime":"2021-11-09T06:54:04.968Z","isRelevant":true},{"ua":"Mozilla/5.0 (Macintosh; Intel Mac OS X 10_15_7) AppleWebKit/537.36 (KHTML, like Gecko) Chrome/95.0.4638.54 Safari/537.36","userId":"118a2724-6420-41e6-af9f-42da893ea092","dateTime":"2021-11-09T06:54:04.972Z","isRelevant":false},{"taskStarted":true,"userId":"118a2724-6420-41e6-af9f-42da893ea092","dateTime":"2021-11-09T18:07:08.474Z","isRelevant":false},{"internal_node_id":"0.0-0.0-1.0","rt":10842.90000000596,"response":" ","trial_type":"html-keyboard-response","stimulus":"Thank you for finishing that task. The next task will be Spatial Orientation. <br> <br> This is a test of your ability to imagine different perspectives or orientations in space. In this task, you will see a picture of a scene of objects with a statement below it, together with an \"input circle\". You will be asked to imagine that you are standing at one object in the scene and facing another object. Your task is to draw a line showing the direction to a third object from this perspective. On each trial, you will be asked to imagine standing at a different first object, facing a different second object, and then to draw a line to a different third object. <br> <br> You respond by \"drawing\" a line on the arrow circle using the computer mouse. The center of the input circle represents your imagined location (at the first object) and the vertical line represents your imagined perspective (facing the second object). You need to draw the direction to a third object from this facing direction. <br> <br> <em>Press the space bar to continue.</em> ","time_elapsed":10845,"trial_index":0,"userId":"118a2724-6420-41e6-af9f-42da893ea092","dateTime":"2021-11-09T18:07:19.319Z","isRelevant":false},{"internal_node_id":"0.0-0.0-2.0","rt":1922.4000000059605,"response":" ","trial_type":"html-keyboard-response","stimulus":"Look at the sample trial below. <img id=\"spatial-orientation-sample\" src=\"https://dev.heartbeamstudy.org/7def44c01e8a14587b8b.png\"/> In this example you are asked to imagine that you are standing at the <strong>bell</strong> facing the <strong>tree</strong>. Your task is to draw a line indicating the direction to the <strong>drum</strong>. In the sample trial this line has been drawn for you. In the test trials, your task is to draw this line on the arrow circle using the computer mouse. Can you see that if you were at the <strong>bell</strong> facing the <strong>tree</strong> the <strong>drum</strong> would be in the direction shown by the dotted line? <br> <br> Now you will begin practicing on the computer. <br> <br> <em>Press the space bar to continue.</em>","time_elapsed":12771,"trial_index":1,"userId":"118a2724-6420-41e6-af9f-42da893ea092","dateTime":"2021-11-09T18:07:21.245Z","isRelevant":false},{"timeLimit":null,"internal_node_id":"0.0-0.0-3.0","rt":4503.9000000059605,"targetRadians":0.9624657945830842,"trial_type":"spatial-orientation","time_elapsed":18286,"trial_index":2,"completionReason":"responded","responseRadians":0.9512086540840811,"userId":"118a2724-6420-41e6-af9f-42da893ea092","dateTime":"2021-11-09T18:07:26.761Z","isRelevant":false},{"internal_node_id":"0.0-0.0-4.0","rt":4728.799999982119,"response":" ","trial_type":"html-keyboard-response","stimulus":"Now you will do the test. There are 12 items on this test. You will have 5 minutes to complete these items. <br> Please try to response accurately, but do not spend too much time on any one item. <br> <em>Press the space bar to begin the test trials.</em> ","time_elapsed":23020,"trial_index":3,"userId":"118a2724-6420-41e6-af9f-42da893ea092","dateTime":"2021-11-09T18:07:31.494Z","isRelevant":false},{"trial_index":4,"internal_node_id":"0.0-0.0-5.0","trial_type":"call-function","time_elapsed":23025,"userId":"118a2724-6420-41e6-af9f-42da893ea092","dateTime":"2021-11-09T18:07:31.500Z","isRelevant":false},{"timeLimit":299997,"internal_node_id":"0.0-0.0-6.0","rt":8368.799999982119,"targetRadians":0.28589879982116495,"trial_type":"spatial-orientation","time_elapsed":32399,"trial_index":5,"completionReason":"responded","responseRadians":0.6996361962135867,"userId":"118a2724-6420-41e6-af9f-42da893ea092","dateTime":"2021-11-09T18:07:40.874Z","isRelevant":true},{"timeLimit":290619,"internal_node_id":"0.0-0.0-7.0","rt":10485.5,"targetRadians":1.4983532678272677,"trial_type":"spatial-orientation","time_elapsed":43892,"trial_index":6,"completionReason":"responded","responseRadians":1.5434059183200342,"userId":"118a2724-6420-41e6-af9f-42da893ea092","dateTime":"2021-11-09T18:07:52.367Z","isRelevant":true},{"timeLimit":279127,"internal_node_id":"0.0-0.0-8.0","rt":6758.4000000059605,"targetRadians":0.8197073925037974,"trial_type":"spatial-orientation","time_elapsed":51660,"trial_index":7,"completionReason":"responded","responseRadians":0.8368989743486738,"userId":"118a2724-6420-41e6-af9f-42da893ea092","dateTime":"2021-11-09T18:08:00.135Z","isRelevant":true},{"timeLimit":271359,"internal_node_id":"0.0-0.0-9.0","rt":7656.0999999940395,"targetRadians":-1.4607584003940466,"trial_type":"spatial-orientation","time_elapsed":60327,"trial_index":8,"completionReason":"responded","responseRadians":-1.1808784628640445,"userId":"118a2724-6420-41e6-af9f-42da893ea092","dateTime":"2021-11-09T18:08:08.802Z","isRelevant":true},{"timeLimit":262691,"internal_node_id":"0.0-0.0-10.0","rt":6092.0999999940395,"targetRadians":-0.2134079135740809,"trial_type":"spatial-orientation","time_elapsed":67432,"trial_index":9,"completionReason":"responded","responseRadians":-0.310168060787986,"userId":"118a2724-6420-41e6-af9f-42da893ea092","dateTime":"2021-11-09T18:08:15.906Z","isRelevant":true},{"timeLimit":255589,"internal_node_id":"0.0-0.0-11.0","rt":7156,"targetRadians":0.2590433602255191,"trial_type":"spatial-orientation","time_elapsed":75598,"trial_index":10,"completionReason":"responded","responseRadians":0.34135588525384686,"userId":"118a2724-6420-41e6-af9f-42da893ea092","dateTime":"2021-11-09T18:08:24.073Z","isRelevant":true},{"timeLimit":247422,"internal_node_id":"0.0-0.0-12.0","rt":7458.199999988079,"targetRadians":1.1502658682459053,"trial_type":"spatial-orientation","time_elapsed":84063,"trial_index":11,"completionReason":"responded","responseRadians":1.1448021458062758,"userId":"118a2724-6420-41e6-af9f-42da893ea092","dateTime":"2021-11-09T18:08:32.538Z","isRelevant":true},{"timeLimit":238957,"internal_node_id":"0.0-0.0-13.0","rt":7469.4000000059605,"targetRadians":0.9030949126005828,"trial_type":"spatial-orientation","time_elapsed":92541,"trial_index":12,"completionReason":"responded","responseRadians":-2.384758148031105,"userId":"118a2724-6420-41e6-af9f-42da893ea092","dateTime":"2021-11-09T18:08:41.015Z","isRelevant":true},{"timeLimit":230478,"internal_node_id":"0.0-0.0-14.0","rt":8954.59999999404,"targetRadians":0.7446044805295828,"trial_type":"spatial-orientation","time_elapsed":102508,"trial_index":13,"completionReason":"responded","responseRadians":0.7494424430768488,"userId":"118a2724-6420-41e6-af9f-42da893ea092","dateTime":"2021-11-09T18:08:50.983Z","isRelevant":true},{"timeLimit":220512,"internal_node_id":"0.0-0.0-15.0","rt":7220,"targetRadians":-0.17022309911327493,"trial_type":"spatial-orientation","time_elapsed":110738,"trial_index":14,"completionReason":"responded","responseRadians":0.01086913717727018,"userId":"118a2724-6420-41e6-af9f-42da893ea092","dateTime":"2021-11-09T18:08:59.213Z","isRelevant":true},{"timeLimit":212281,"internal_node_id":"0.0-0.0-16.0","rt":7407.199999988079,"targetRadians":-0.8603587032473338,"trial_type":"spatial-orientation","time_elapsed":119157,"trial_index":15,"completionReason":"responded","responseRadians":-0.5862784673249505,"userId":"118a2724-6420-41e6-af9f-42da893ea092","dateTime":"2021-11-09T18:09:07.632Z","isRelevant":true},{"timeLimit":203862,"internal_node_id":"0.0-0.0-17.0","rt":6346,"targetRadians":-0.5358874732441836,"trial_type":"spatial-orientation","time_elapsed":126515,"trial_index":16,"completionReason":"responded","responseRadians":-0.6615374841836333,"userId":"118a2724-6420-41e6-af9f-42da893ea092","dateTime":"2021-11-09T18:09:14.990Z","isRelevant":true},{"ua":"Mozilla/5.0 (Macintosh; Intel Mac OS X 10_15_7) AppleWebKit/537.36 (KHTML, like Gecko) Chrome/95.0.4638.54 Safari/537.36","userId":"118a2724-6420-41e6-af9f-42da893ea092","dateTime":"2021-11-09T18:09:14.993Z","isRelevant":false},{"taskStarted":true,"userId":"b07d920b-a11a-422a-a359-694608c3cd00","dateTime":"2021-11-16T18:48:37.195Z","isRelevant":false},{"internal_node_id":"0.0-0.0-1.0","rt":23816.399999976158,"response":" ","trial_type":"html-keyboard-response","stimulus":"Thank you for finishing that task. The next task will be Spatial Orientation. <br> <br> This is a test of your ability to imagine different perspectives or orientations in space. In this task, you will see a picture of a scene of objects with a statement below it, together with an \"input circle\". You will be asked to imagine that you are standing at one object in the scene and facing another object. Your task is to draw a line showing the direction to a third object from this perspective. On each trial, you will be asked to imagine standing at a different first object, facing a different second object, and then to draw a line to a different third object. <br> <br> You respond by \"drawing\" a line on the arrow circle using the computer mouse. The center of the input circle represents your imagined location (at the first object) and the vertical line represents your imagined perspective (facing the second object). You need to draw the direction to a third object from this facing direction. <br> <br> <em>Press the space bar to continue.</em> ","time_elapsed":23816,"trial_index":0,"userId":"b07d920b-a11a-422a-a359-694608c3cd00","dateTime":"2021-11-16T18:49:01.011Z","isRelevant":false},{"internal_node_id":"0.0-0.0-2.0","rt":38607.40000009537,"response":" ","trial_type":"html-keyboard-response","stimulus":"Look at the sample trial below. <img id=\"spatial-orientation-sample\" src=\"https://dev.heartbeamstudy.org/7def44c01e8a14587b8b.png\"/> In this example you are asked to imagine that you are standing at the <strong>bell</strong> facing the <strong>tree</strong>. Your task is to draw a line indicating the direction to the <strong>drum</strong>. In the sample trial this line has been drawn for you. In the test trials, your task is to draw this line on the arrow circle using the computer mouse. Can you see that if you were at the <strong>bell</strong> facing the <strong>tree</strong> the <strong>drum</strong> would be in the direction shown by the dotted line? <br> <br> Now you will begin practicing on the computer. <br> <br> <em>Press the space bar to continue.</em>","time_elapsed":62423,"trial_index":1,"userId":"b07d920b-a11a-422a-a359-694608c3cd00","dateTime":"2021-11-16T18:49:39.618Z","isRelevant":false},{"timeLimit":null,"internal_node_id":"0.0-0.0-3.0","rt":29128.700000047684,"targetRadians":0.9624657945830842,"trial_type":"spatial-orientation","time_elapsed":92557,"trial_index":2,"completionReason":"responded","responseRadians":0.9541482658177495,"userId":"b07d920b-a11a-422a-a359-694608c3cd00","dateTime":"2021-11-16T18:50:09.752Z","isRelevant":false},{"internal_node_id":"0.0-0.0-4.0","rt":5859.399999976158,"response":" ","trial_type":"html-keyboard-response","stimulus":"Now you will do three practice trials. When each trial appears, move the line and click to indicate your answer. <br> Once you have entered your answer the correct answer will be shown in red. <br> <em>Press the space bar to begin the practice trials.</em> ","time_elapsed":98418,"trial_index":3,"userId":"b07d920b-a11a-422a-a359-694608c3cd00","dateTime":"2021-11-16T18:50:15.613Z","isRelevant":false},{"timeLimit":null,"internal_node_id":"0.0-0.0-5.0","rt":17598,"targetRadians":-1.0086842634230553,"trial_type":"spatial-orientation","time_elapsed":117018,"trial_index":4,"completionReason":"responded","responseRadians":-0.9769372748296941,"userId":"b07d920b-a11a-422a-a359-694608c3cd00","dateTime":"2021-11-16T18:50:34.213Z","isRelevant":false},{"timeLimit":null,"internal_node_id":"0.0-0.0-6.0","rt":14174.5,"targetRadians":0.5839296875504644,"trial_type":"spatial-orientation","time_elapsed":132194,"trial_index":5,"completionReason":"responded","responseRadians":0.2563676923177997,"userId":"b07d920b-a11a-422a-a359-694608c3cd00","dateTime":"2021-11-16T18:50:49.389Z","isRelevant":false},{"timeLimit":null,"internal_node_id":"0.0-0.0-7.0","rt":20001.200000047684,"targetRadians":-0.8795148654579059,"trial_type":"spatial-orientation","time_elapsed":153197,"trial_index":6,"completionReason":"responded","responseRadians":-1.0432115942941291,"userId":"b07d920b-a11a-422a-a359-694608c3cd00","dateTime":"2021-11-16T18:51:10.392Z","isRelevant":false},{"internal_node_id":"0.0-0.0-8.0","rt":10601.100000023842,"response":" ","trial_type":"html-keyboard-response","stimulus":"Now you will do the test. There are 12 items on this test. You will have 5 minutes to complete these items. <br> Please try to response accurately, but do not spend too much time on any one item. <br> <em>Press the space bar to begin the test trials.</em> ","time_elapsed":163799,"trial_index":7,"userId":"b07d920b-a11a-422a-a359-694608c3cd00","dateTime":"2021-11-16T18:51:20.994Z","isRelevant":false},{"trial_index":8,"internal_node_id":"0.0-0.0-9.0","trial_type":"call-function","time_elapsed":163801,"userId":"b07d920b-a11a-422a-a359-694608c3cd00","dateTime":"2021-11-16T18:51:20.996Z","isRelevant":false},{"timeLimit":300000,"internal_node_id":"0.0-0.0-10.0","rt":9502.300000071526,"targetRadians":0.4742324526278433,"trial_type":"spatial-orientation","time_elapsed":174307,"trial_index":9,"completionReason":"responded","responseRadians":0.6162969373960713,"userId":"b07d920b-a11a-422a-a359-694608c3cd00","dateTime":"2021-11-16T18:51:31.502Z","isRelevant":true},{"timeLimit":289493,"internal_node_id":"0.0-0.0-11.0","rt":11168.299999952316,"targetRadians":-2.92541464355029,"trial_type":"spatial-orientation","time_elapsed":186477,"trial_index":10,"completionReason":"responded","responseRadians":-3.0151521563314034,"userId":"b07d920b-a11a-422a-a359-694608c3cd00","dateTime":"2021-11-16T18:51:43.672Z","isRelevant":true},{"timeLimit":277322,"internal_node_id":"0.0-0.0-12.0","rt":11547.299999952316,"targetRadians":1.6318939858047552,"trial_type":"spatial-orientation","time_elapsed":199028,"trial_index":11,"completionReason":"responded","responseRadians":1.7482810982896062,"userId":"b07d920b-a11a-422a-a359-694608c3cd00","dateTime":"2021-11-16T18:51:56.223Z","isRelevant":true},{"timeLimit":264771,"internal_node_id":"0.0-0.0-13.0","rt":11444.300000071526,"targetRadians":-1.5920697128189578,"trial_type":"spatial-orientation","time_elapsed":211474,"trial_index":12,"completionReason":"responded","responseRadians":-1.9490169936020985,"userId":"b07d920b-a11a-422a-a359-694608c3cd00","dateTime":"2021-11-16T18:52:08.669Z","isRelevant":true},{"timeLimit":252325,"internal_node_id":"0.0-0.0-14.0","rt":8208.899999976158,"targetRadians":1.624119345987489,"trial_type":"spatial-orientation","time_elapsed":220689,"trial_index":13,"completionReason":"responded","responseRadians":1.8293400492940786,"userId":"b07d920b-a11a-422a-a359-694608c3cd00","dateTime":"2021-11-16T18:52:17.885Z","isRelevant":true},{"timeLimit":243110,"internal_node_id":"0.0-0.0-15.0","rt":9733.300000071526,"targetRadians":-0.44595476693421093,"trial_type":"spatial-orientation","time_elapsed":231490,"trial_index":14,"completionReason":"responded","responseRadians":-0.2653320862089848,"userId":"b07d920b-a11a-422a-a359-694608c3cd00","dateTime":"2021-11-16T18:52:28.685Z","isRelevant":true},{"timeLimit":232310,"internal_node_id":"0.0-0.0-16.0","rt":8819.799999952316,"targetRadians":-0.7171802924858609,"trial_type":"spatial-orientation","time_elapsed":241311,"trial_index":15,"completionReason":"responded","responseRadians":-0.5567627701172992,"userId":"b07d920b-a11a-422a-a359-694608c3cd00","dateTime":"2021-11-16T18:52:38.506Z","isRelevant":true},{"timeLimit":222488,"internal_node_id":"0.0-0.0-17.0","rt":9839.200000047684,"targetRadians":1.9104973713779634,"trial_type":"spatial-orientation","time_elapsed":252153,"trial_index":16,"completionReason":"responded","responseRadians":2.073991650384262,"userId":"b07d920b-a11a-422a-a359-694608c3cd00","dateTime":"2021-11-16T18:52:49.348Z","isRelevant":true},{"timeLimit":211646,"internal_node_id":"0.0-0.0-18.0","rt":9365,"targetRadians":-2.492252689052089,"trial_type":"spatial-orientation","time_elapsed":262523,"trial_index":17,"completionReason":"responded","responseRadians":-2.0749622882740497,"userId":"b07d920b-a11a-422a-a359-694608c3cd00","dateTime":"2021-11-16T18:52:59.718Z","isRelevant":true},{"timeLimit":201276,"internal_node_id":"0.0-0.0-19.0","rt":7551.100000023842,"targetRadians":-2.6691413797901933,"trial_type":"spatial-orientation","time_elapsed":271078,"trial_index":18,"completionReason":"responded","responseRadians":-2.834800707201287,"userId":"b07d920b-a11a-422a-a359-694608c3cd00","dateTime":"2021-11-16T18:53:08.273Z","isRelevant":true},{"timeLimit":192721,"internal_node_id":"0.0-0.0-20.0","rt":10453.5,"targetRadians":1.898504206311071,"trial_type":"spatial-orientation","time_elapsed":282534,"trial_index":19,"completionReason":"responded","responseRadians":1.9737079176484125,"userId":"b07d920b-a11a-422a-a359-694608c3cd00","dateTime":"2021-11-16T18:53:19.729Z","isRelevant":true},{"timeLimit":181265,"internal_node_id":"0.0-0.0-21.0","rt":8936.900000095367,"targetRadians":0.7103112782964007,"trial_type":"spatial-orientation","time_elapsed":292474,"trial_index":20,"completionReason":"responded","responseRadians":0.8009732278493908,"userId":"b07d920b-a11a-422a-a359-694608c3cd00","dateTime":"2021-11-16T18:53:29.669Z","isRelevant":true},{"ua":"Mozilla/5.0 (Macintosh; Intel Mac OS X 10_15_7) AppleWebKit/537.36 (KHTML, like Gecko) Chrome/95.0.4638.54 Safari/537.36","userId":"b07d920b-a11a-422a-a359-694608c3cd00","dateTime":"2021-11-16T18:53:29.670Z","isRelevant":false},{"taskStarted":true,"userId":"b07d920b-a11a-422a-a359-694608c3cd00","dateTime":"2021-11-17T23:30:10.001Z","isRelevant":false},{"internal_node_id":"0.0-0.0-1.0","rt":6568,"response":" ","trial_type":"html-keyboard-response","stimulus":"Thank you for finishing that task. The next task will be Spatial Orientation. <br> <br> This is a test of your ability to imagine different perspectives or orientations in space. In this task, you will see a picture of a scene of objects with a statement below it, together with an \"input circle\". You will be asked to imagine that you are standing at one object in the scene and facing another object. Your task is to draw a line showing the direction to a third object from this perspective. On each trial, you will be asked to imagine standing at a different first object, facing a different second object, and then to draw a line to a different third object. <br> <br> You respond by \"drawing\" a line on the arrow circle using the computer mouse. The center of the input circle represents your imagined location (at the first object) and the vertical line represents your imagined perspective (facing the second object). You need to draw the direction to a third object from this facing direction. <br> <br> <em>Press the space bar to continue.</em> ","time_elapsed":6569,"trial_index":0,"userId":"b07d920b-a11a-422a-a359-694608c3cd00","dateTime":"2021-11-17T23:30:16.570Z","isRelevant":false},{"internal_node_id":"0.0-0.0-2.0","rt":15043.899999976158,"response":" ","trial_type":"html-keyboard-response","stimulus":"Look at the sample trial below. <img id=\"spatial-orientation-sample\" src=\"https://dev.heartbeamstudy.org/7def44c01e8a14587b8b.png\"/> In this example you are asked to imagine that you are standing at the <strong>bell</strong> facing the <strong>tree</strong>. Your task is to draw a line indicating the direction to the <strong>drum</strong>. In the sample trial this line has been drawn for you. In the test trials, your task is to draw this line on the arrow circle using the computer mouse. Can you see that if you were at the <strong>bell</strong> facing the <strong>tree</strong> the <strong>drum</strong> would be in the direction shown by the dotted line? <br> <br> Now you will begin practicing on the computer. <br> <br> <em>Press the space bar to continue.</em>","time_elapsed":21613,"trial_index":1,"userId":"b07d920b-a11a-422a-a359-694608c3cd00","dateTime":"2021-11-17T23:30:31.614Z","isRelevant":false},{"timeLimit":null,"internal_node_id":"0.0-0.0-3.0","rt":8910.100000023842,"targetRadians":0.9624657945830842,"trial_type":"spatial-orientation","time_elapsed":31525,"trial_index":2,"completionReason":"responded","responseRadians":0.9328782865424575,"userId":"b07d920b-a11a-422a-a359-694608c3cd00","dateTime":"2021-11-17T23:30:41.526Z","isRelevant":false},{"internal_node_id":"0.0-0.0-4.0","rt":3223.899999976158,"response":" ","trial_type":"html-keyboard-response","stimulus":"Now you will do the test. There are 12 items on this test. You will have 5 minutes to complete these items. <br> Please try to respond accurately, but do not spend too much time on any one item. <br> <em>Press the space bar to begin the test trials.</em> ","time_elapsed":34751,"trial_index":3,"userId":"b07d920b-a11a-422a-a359-694608c3cd00","dateTime":"2021-11-17T23:30:44.752Z","isRelevant":false},{"trial_index":4,"internal_node_id":"0.0-0.0-5.0","trial_type":"call-function","time_elapsed":34752,"userId":"b07d920b-a11a-422a-a359-694608c3cd00","dateTime":"2021-11-17T23:30:44.753Z","isRelevant":false},{"timeLimit":299999,"internal_node_id":"0.0-0.0-6.0","rt":10902.200000047684,"targetRadians":0.8197073925037974,"trial_type":"spatial-orientation","time_elapsed":46659,"trial_index":5,"completionReason":"responded","responseRadians":0.8828924765597103,"userId":"b07d920b-a11a-422a-a359-694608c3cd00","dateTime":"2021-11-17T23:30:56.660Z","isRelevant":true},{"timeLimit":288092,"internal_node_id":"0.0-0.0-7.0","rt":9017.799999952316,"targetRadians":-1.4607584003940466,"trial_type":"spatial-orientation","time_elapsed":56680,"trial_index":6,"completionReason":"responded","responseRadians":-1.6144843575862984,"userId":"b07d920b-a11a-422a-a359-694608c3cd00","dateTime":"2021-11-17T23:31:06.681Z","isRelevant":true},{"timeLimit":278070,"internal_node_id":"0.0-0.0-8.0","rt":12015.199999928474,"targetRadians":0.9030949126005828,"trial_type":"spatial-orientation","time_elapsed":69698,"trial_index":7,"completionReason":"responded","responseRadians":0.6996361962135867,"userId":"b07d920b-a11a-422a-a359-694608c3cd00","dateTime":"2021-11-17T23:31:19.699Z","isRelevant":true},{"timeLimit":265052,"internal_node_id":"0.0-0.0-9.0","rt":6481,"targetRadians":-0.5358874732441836,"trial_type":"spatial-orientation","time_elapsed":77184,"trial_index":8,"completionReason":"responded","responseRadians":-0.40964610862483786,"userId":"b07d920b-a11a-422a-a359-694608c3cd00","dateTime":"2021-11-17T23:31:27.185Z","isRelevant":true},{"timeLimit":257566,"internal_node_id":"0.0-0.0-10.0","rt":8190.600000023842,"targetRadians":-0.2134079135740809,"trial_type":"spatial-orientation","time_elapsed":86381,"trial_index":9,"completionReason":"responded","responseRadians":-0.19968388537510157,"userId":"b07d920b-a11a-422a-a359-694608c3cd00","dateTime":"2021-11-17T23:31:36.382Z","isRelevant":true},{"timeLimit":248368,"internal_node_id":"0.0-0.0-11.0","rt":10799.899999976158,"targetRadians":-0.17022309911327493,"trial_type":"spatial-orientation","time_elapsed":98187,"trial_index":10,"completionReason":"responded","responseRadians":-0.08800737352774077,"userId":"b07d920b-a11a-422a-a359-694608c3cd00","dateTime":"2021-11-17T23:31:48.188Z","isRelevant":true},{"timeLimit":236563,"internal_node_id":"0.0-0.0-12.0","rt":6742.799999952316,"targetRadians":0.28589879982116495,"trial_type":"spatial-orientation","time_elapsed":105936,"trial_index":11,"completionReason":"responded","responseRadians":0.18937004997584467,"userId":"b07d920b-a11a-422a-a359-694608c3cd00","dateTime":"2021-11-17T23:31:55.937Z","isRelevant":true},{"timeLimit":228814,"internal_node_id":"0.0-0.0-13.0","rt":7507.600000023842,"targetRadians":0.2590433602255191,"trial_type":"spatial-orientation","time_elapsed":114448,"trial_index":12,"completionReason":"responded","responseRadians":0.28139243264917846,"userId":"b07d920b-a11a-422a-a359-694608c3cd00","dateTime":"2021-11-17T23:32:04.449Z","isRelevant":true},{"timeLimit":220303,"internal_node_id":"0.0-0.0-14.0","rt":11032.099999904633,"targetRadians":-0.8603587032473338,"trial_type":"spatial-orientation","time_elapsed":126485,"trial_index":13,"completionReason":"responded","responseRadians":-0.5456550545269917,"userId":"b07d920b-a11a-422a-a359-694608c3cd00","dateTime":"2021-11-17T23:32:16.487Z","isRelevant":true},{"timeLimit":208264,"internal_node_id":"0.0-0.0-15.0","rt":7243,"targetRadians":1.1502658682459053,"trial_type":"spatial-orientation","time_elapsed":134732,"trial_index":14,"completionReason":"responded","responseRadians":0.8029402234548508,"userId":"b07d920b-a11a-422a-a359-694608c3cd00","dateTime":"2021-11-17T23:32:24.733Z","isRelevant":true},{"timeLimit":200018,"internal_node_id":"0.0-0.0-16.0","rt":12710.099999904633,"targetRadians":1.4983532678272677,"trial_type":"spatial-orientation","time_elapsed":148449,"trial_index":15,"completionReason":"responded","responseRadians":1.4005157296238002,"userId":"b07d920b-a11a-422a-a359-694608c3cd00","dateTime":"2021-11-17T23:32:38.450Z","isRelevant":true},{"timeLimit":186301,"internal_node_id":"0.0-0.0-17.0","rt":6013,"targetRadians":0.7446044805295828,"trial_type":"spatial-orientation","time_elapsed":155464,"trial_index":16,"completionReason":"responded","responseRadians":0.6197901382889002,"userId":"b07d920b-a11a-422a-a359-694608c3cd00","dateTime":"2021-11-17T23:32:45.465Z","isRelevant":true},{"ua":"Mozilla/5.0 (Macintosh; Intel Mac OS X 10_15_7) AppleWebKit/537.36 (KHTML, like Gecko) Chrome/95.0.4638.54 Safari/537.36","userId":"b07d920b-a11a-422a-a359-694608c3cd00","dateTime":"2021-11-17T23:32:45.466Z","isRelevant":false},{"taskStarted":true,"userId":"b07d920b-a11a-422a-a359-694608c3cd00","dateTime":"2021-11-19T05:29:18.659Z","isRelevant":false},{"internal_node_id":"0.0-0.0-1.0","rt":12698.100000023842,"response":" ","trial_type":"html-keyboard-response","stimulus":"Thank you for finishing that task. The next task will be Spatial Orientation. <br> <br> This is a test of your ability to imagine different perspectives or orientations in space. In this task, you will see a picture of a scene of objects with a statement below it, together with an \"input circle\". You will be asked to imagine that you are standing at one object in the scene and facing another object. Your task is to draw a line showing the direction to a third object from this perspective. On each trial, you will be asked to imagine standing at a different first object, facing a different second object, and then to draw a line to a different third object. <br> <br> You respond by \"drawing\" a line on the arrow circle using the computer mouse. The center of the input circle represents your imagined location (at the first object) and the vertical line represents your imagined perspective (facing the second object). You need to draw the direction to a third object from this facing direction. <br> <br> <em>Press the space bar to continue.</em> ","time_elapsed":12699,"trial_index":0,"userId":"b07d920b-a11a-422a-a359-694608c3cd00","dateTime":"2021-11-19T05:29:31.358Z","isRelevant":false},{"internal_node_id":"0.0-0.0-2.0","rt":6027.100000023842,"response":" ","trial_type":"html-keyboard-response","stimulus":"Look at the sample trial below. <img id=\"spatial-orientation-sample\" src=\"https://dev.heartbeamstudy.org/7def44c01e8a14587b8b.png\"/> In this example you are asked to imagine that you are standing at the <strong>bell</strong> facing the <strong>tree</strong>. Your task is to draw a line indicating the direction to the <strong>drum</strong>. In the sample trial this line has been drawn for you. In the test trials, your task is to draw this line on the arrow circle using the computer mouse. Can you see that if you were at the <strong>bell</strong> facing the <strong>tree</strong> the <strong>drum</strong> would be in the direction shown by the dotted line? <br> <br> Now you will begin practicing on the computer. <br> <br> <em>Press the space bar to continue.</em>","time_elapsed":18727,"trial_index":1,"userId":"b07d920b-a11a-422a-a359-694608c3cd00","dateTime":"2021-11-19T05:29:37.386Z","isRelevant":false},{"internal_node_id":"0.0-0.0-3.0","rt":4607,"center":"bell","time_elapsed":24337,"facing":"tree","completionReason":"responded","target":"drum","mode":"example","timeLimit":null,"targetRadians":0.9624657945830842,"trial_type":"spatial-orientation","trial_index":2,"responseRadians":0.9501444263468756,"userId":"b07d920b-a11a-422a-a359-694608c3cd00","dateTime":"2021-11-19T05:29:42.996Z","isRelevant":false},{"internal_node_id":"0.0-0.0-4.0","rt":2548.100000023842,"response":" ","trial_type":"html-keyboard-response","stimulus":"Now you will do the test. There are 12 items on this test. You will have 5 minutes to complete these items. <br> Please try to respond accurately, but do not spend too much time on any one item. <br> <em>Press the space bar to begin the test trials.</em> ","time_elapsed":26888,"trial_index":3,"userId":"b07d920b-a11a-422a-a359-694608c3cd00","dateTime":"2021-11-19T05:29:45.547Z","isRelevant":false},{"trial_index":4,"internal_node_id":"0.0-0.0-5.0","trial_type":"call-function","time_elapsed":26890,"userId":"b07d920b-a11a-422a-a359-694608c3cd00","dateTime":"2021-11-19T05:29:45.549Z","isRelevant":false},{"internal_node_id":"0.0-0.0-6.0","rt":8456.5,"center":"drum","time_elapsed":36351,"facing":"barrel","completionReason":"responded","target":"bell","mode":"test","timeLimit":299999,"targetRadians":-2.502232007503411,"trial_type":"spatial-orientation","trial_index":5,"responseRadians":-2.585301470327419,"userId":"b07d920b-a11a-422a-a359-694608c3cd00","dateTime":"2021-11-19T05:29:55.010Z","isRelevant":true},{"internal_node_id":"0.0-0.0-7.0","rt":8090.5,"center":"drum","time_elapsed":45447,"facing":"barrel","completionReason":"responded","target":"wheel","mode":"test","timeLimit":290538,"targetRadians":0.8555386561258853,"trial_type":"spatial-orientation","trial_index":6,"responseRadians":0.6947382761967033,"userId":"b07d920b-a11a-422a-a359-694608c3cd00","dateTime":"2021-11-19T05:30:04.106Z","isRelevant":true},{"internal_node_id":"0.0-0.0-8.0","rt":11956.700000047684,"center":"wheel","time_elapsed":58407,"facing":"traffic light","completionReason":"responded","target":"bell","mode":"test","timeLimit":281441,"targetRadians":0.8120443072265926,"trial_type":"spatial-orientation","trial_index":7,"responseRadians":0.8960553845713439,"userId":"b07d920b-a11a-422a-a359-694608c3cd00","dateTime":"2021-11-19T05:30:17.066Z","isRelevant":true},{"internal_node_id":"0.0-0.0-9.0","rt":6815.199999928474,"center":"barrel","time_elapsed":66225,"facing":"traffic light","completionReason":"responded","target":"tree","mode":"test","timeLimit":268481,"targetRadians":1.3442756004689322,"trial_type":"spatial-orientation","trial_index":8,"responseRadians":1.5626332428118657,"userId":"b07d920b-a11a-422a-a359-694608c3cd00","dateTime":"2021-11-19T05:30:24.884Z","isRelevant":true},{"internal_node_id":"0.0-0.0-10.0","rt":15132.5,"center":"barrel","time_elapsed":82361,"facing":"wheel","completionReason":"responded","target":"bell","mode":"test","timeLimit":260663,"targetRadians":0.9780048315396234,"trial_type":"spatial-orientation","trial_index":9,"responseRadians":1.2913125357203827,"userId":"b07d920b-a11a-422a-a359-694608c3cd00","dateTime":"2021-11-19T05:30:41.020Z","isRelevant":true},{"internal_node_id":"0.0-0.0-11.0","rt":6832.399999976158,"center":"trash can","time_elapsed":90195,"facing":"drum","completionReason":"responded","target":"tree","mode":"test","timeLimit":244528,"targetRadians":-0.29660864163131295,"trial_type":"spatial-orientation","trial_index":10,"responseRadians":-0.36433131731253837,"userId":"b07d920b-a11a-422a-a359-694608c3cd00","dateTime":"2021-11-19T05:30:48.854Z","isRelevant":true},{"internal_node_id":"0.0-0.0-12.0","rt":6677,"center":"drum","time_elapsed":97874,"facing":"wheel","completionReason":"responded","target":"tree","mode":"test","timeLimit":236693,"targetRadians":-1.9104973713779634,"trial_type":"spatial-orientation","trial_index":11,"responseRadians":-2.1391550920340867,"userId":"b07d920b-a11a-422a-a359-694608c3cd00","dateTime":"2021-11-19T05:30:56.533Z","isRelevant":true},{"internal_node_id":"0.0-0.0-13.0","rt":7651.899999976158,"center":"bell","time_elapsed":106531,"facing":"trash can","completionReason":"responded","target":"tree","mode":"test","timeLimit":229014,"targetRadians":-2.112731662828989,"trial_type":"spatial-orientation","trial_index":12,"responseRadians":-2.1941303187265326,"userId":"b07d920b-a11a-422a-a359-694608c3cd00","dateTime":"2021-11-19T05:31:05.190Z","isRelevant":true},{"internal_node_id":"0.0-0.0-14.0","rt":12259.399999976158,"center":"wheel","time_elapsed":119796,"facing":"barrel","completionReason":"responded","target":"trash can","mode":"test","timeLimit":220357,"targetRadians":-2.322029589938814,"trial_type":"spatial-orientation","trial_index":13,"responseRadians":-2.5613218547302616,"userId":"b07d920b-a11a-422a-a359-694608c3cd00","dateTime":"2021-11-19T05:31:18.455Z","isRelevant":true},{"internal_node_id":"0.0-0.0-15.0","rt":6319.399999976158,"center":"wheel","time_elapsed":127119,"facing":"traffic light","completionReason":"responded","target":"drum","mode":"test","timeLimit":207093,"targetRadians":0.9233789840740421,"trial_type":"spatial-orientation","trial_index":14,"responseRadians":0.8535654729316583,"userId":"b07d920b-a11a-422a-a359-694608c3cd00","dateTime":"2021-11-19T05:31:25.778Z","isRelevant":true},{"internal_node_id":"0.0-0.0-16.0","rt":11120,"center":"drum","time_elapsed":139241,"facing":"wheel","completionReason":"responded","target":"bell","mode":"test","timeLimit":199769,"targetRadians":2.92541464355029,"trial_type":"spatial-orientation","trial_index":15,"responseRadians":3.0143764365219052,"userId":"b07d920b-a11a-422a-a359-694608c3cd00","dateTime":"2021-11-19T05:31:37.900Z","isRelevant":true},{"internal_node_id":"0.0-0.0-17.0","rt":10255.299999952316,"center":"traffic light","time_elapsed":150501,"facing":"bell","completionReason":"responded","target":"barrel","mode":"test","timeLimit":187647,"targetRadians":1.533843271555129,"trial_type":"spatial-orientation","trial_index":16,"responseRadians":1.3689325214359966,"userId":"b07d920b-a11a-422a-a359-694608c3cd00","dateTime":"2021-11-19T05:31:49.160Z","isRelevant":true},{"ua":"Mozilla/5.0 (Macintosh; Intel Mac OS X 10_15_7) AppleWebKit/537.36 (KHTML, like Gecko) Chrome/95.0.4638.54 Safari/537.36","userId":"b07d920b-a11a-422a-a359-694608c3cd00","dateTime":"2021-11-19T05:31:49.161Z","isRelevant":false},{"taskStarted":true,"userId":"b07d920b-a11a-422a-a359-694608c3cd00","dateTime":"2021-11-20T00:41:33.345Z","isRelevant":false},{"internal_node_id":"0.0-0.0-1.0","rt":11174.300000071526,"response":" ","trial_type":"html-keyboard-response","stimulus":"Thank you for finishing that task. The next task will be Spatial Orientation. <br> <br> This is a test of your ability to imagine different perspectives or orientations in space. In this task, you will see a picture of a scene of objects with a statement below it, together with an \"input circle\". You will be asked to imagine that you are standing at one object in the scene and facing another object. Your task is to draw a line showing the direction to a third object from this perspective. On each trial, you will be asked to imagine standing at a different first object, facing a different second object, and then to draw a line to a different third object. <br> <br> You respond by \"drawing\" a line on the arrow circle using the computer mouse. The center of the input circle represents your imagined location (at the first object) and the vertical line represents your imagined perspective (facing the second object). You need to draw the direction to a third object from this facing direction. <br> <br> <em>Press the space bar to continue.</em> ","time_elapsed":11175,"trial_index":0,"userId":"b07d920b-a11a-422a-a359-694608c3cd00","dateTime":"2021-11-20T00:41:44.520Z","isRelevant":false},{"internal_node_id":"0.0-0.0-2.0","rt":40812.60000002384,"response":" ","trial_type":"html-keyboard-response","stimulus":"Look at the sample trial below. <img id=\"spatial-orientation-sample\" src=\"https://dev.heartbeamstudy.org/7def44c01e8a14587b8b.png\"/> In this example you are asked to imagine that you are standing at the <strong>bell</strong> facing the <strong>tree</strong>. Your task is to draw a line indicating the direction to the <strong>drum</strong>. In the sample trial this line has been drawn for you. In the test trials, your task is to draw this line on the arrow circle using the computer mouse. Can you see that if you were at the <strong>bell</strong> facing the <strong>tree</strong> the <strong>drum</strong> would be in the direction shown by the dotted line? <br> <br> Now you will begin practicing on the computer. <br> <br> <em>Press the space bar to continue.</em>","time_elapsed":51988,"trial_index":1,"userId":"b07d920b-a11a-422a-a359-694608c3cd00","dateTime":"2021-11-20T00:42:25.333Z","isRelevant":false},{"internal_node_id":"0.0-0.0-3.0","rt":5263.100000023842,"center":"bell","time_elapsed":58258,"facing":"tree","completionReason":"responded","target":"drum","mode":"example","timeLimit":null,"targetRadians":0.9624657945830842,"trial_type":"spatial-orientation","trial_index":2,"responseRadians":0.9656427464707315,"userId":"b07d920b-a11a-422a-a359-694608c3cd00","dateTime":"2021-11-20T00:42:31.603Z","isRelevant":false},{"internal_node_id":"0.0-0.0-4.0","rt":2306.0999999046326,"response":" ","trial_type":"html-keyboard-response","stimulus":"Now you will do the test. There are 12 items on this test. You will have 5 minutes to complete these items. <br> Please try to respond accurately, but do not spend too much time on any one item. <br> <em>Press the space bar to begin the test trials.</em> ","time_elapsed":60566,"trial_index":3,"userId":"b07d920b-a11a-422a-a359-694608c3cd00","dateTime":"2021-11-20T00:42:33.911Z","isRelevant":false},{"trial_index":4,"internal_node_id":"0.0-0.0-5.0","trial_type":"call-function","time_elapsed":60567,"userId":"b07d920b-a11a-422a-a359-694608c3cd00","dateTime":"2021-11-20T00:42:33.912Z","isRelevant":false},{"internal_node_id":"0.0-0.0-6.0","rt":6479.5,"center":"bell","time_elapsed":68048,"facing":"traffic light","completionReason":"responded","target":"barrel","mode":"test","timeLimit":299998,"targetRadians":-0.9144235802768034,"trial_type":"spatial-orientation","trial_index":5,"responseRadians":-0.7457713411435215,"userId":"b07d920b-a11a-422a-a359-694608c3cd00","dateTime":"2021-11-20T00:42:41.393Z","isRelevant":true},{"internal_node_id":"0.0-0.0-7.0","rt":9161.399999976158,"center":"wheel","time_elapsed":78211,"facing":"drum","completionReason":"responded","target":"bell","mode":"test","timeLimit":292517,"targetRadians":-0.11133467684744937,"trial_type":"spatial-orientation","trial_index":6,"responseRadians":-0.09471574598847579,"userId":"b07d920b-a11a-422a-a359-694608c3cd00","dateTime":"2021-11-20T00:42:51.557Z","isRelevant":true},{"internal_node_id":"0.0-0.0-8.0","rt":8946.899999976158,"center":"drum","time_elapsed":88162,"facing":"tree","completionReason":"responded","target":"traffic light","mode":"test","timeLimit":282353,"targetRadians":2.9191816348010184,"trial_type":"spatial-orientation","trial_index":7,"responseRadians":3.098935618841233,"userId":"b07d920b-a11a-422a-a359-694608c3cd00","dateTime":"2021-11-20T00:43:01.507Z","isRelevant":true},{"internal_node_id":"0.0-0.0-9.0","rt":12870.399999976158,"center":"bell","time_elapsed":102034,"facing":"wheel","completionReason":"responded","target":"trash can","mode":"test","timeLimit":272403,"targetRadians":1.0454225350538513,"trial_type":"spatial-orientation","trial_index":8,"responseRadians":1.1571071135160333,"userId":"b07d920b-a11a-422a-a359-694608c3cd00","dateTime":"2021-11-20T00:43:15.380Z","isRelevant":true},{"internal_node_id":"0.0-0.0-10.0","rt":7274.600000023842,"center":"barrel","time_elapsed":110313,"facing":"tra