[{"taskStarted":true,"userId":"524d2272-d17f-42aa-b335-772a7ac10972","dateTime":"2021-11-13T00:02:00.245Z","isRelevant":false},{"internal_node_id":"0.0-0.0-1.0","rt":22776,"response":" ","trial_type":"html-keyboard-response","stimulus":"You are about to start a new task. In this task we will ask you to classify numbers using simple rules. You will see one number at a time, like this one:<div class=\"small ylw\"><p>2</p></div><p>In addition to numbers, at the bottom of the screen, you will see the rule for that trial. Now let’s see what the rules are.</p><em>Press the space bar to continue</em>","time_elapsed":22781,"trial_index":0,"userId":"524d2272-d17f-42aa-b335-772a7ac10972","dateTime":"2021-11-13T00:02:23.025Z","isRelevant":false},{"internal_node_id":"0.0-0.0-2.0-0.0","rt":3969,"isTraining":true,"correct":true,"response":"arrowleft","trial_type":"html-keyboard-response","stimulus":"<div class=\"small blue\"><p>2</p></div><div class=\"small\"><span class=\"leftVal\"><5</span> <span>>5</span></div><p>Is the number presented on the screen less than or greater than 5? Please press the left arrow key if the number is less than 5 and the right arrow key if the number is greater than 5.</p>","time_elapsed":26752,"trial_index":1,"userId":"524d2272-d17f-42aa-b335-772a7ac10972","dateTime":"2021-11-13T00:02:26.996Z","isRelevant":false},{"internal_node_id":"0.0-0.0-2.0-1.0","rt":3932,"isTraining":true,"response":" ","trial_type":"html-keyboard-response","stimulus":"<p>Excellent! That is the correct answer.</p><br/><em>Please press the space bar to continue.</em>","time_elapsed":30686,"trial_index":2,"userId":"524d2272-d17f-42aa-b335-772a7ac10972","dateTime":"2021-11-13T00:02:30.931Z","isRelevant":false},{"internal_node_id":"0.0-0.0-3.0-0.0","rt":3645,"isTraining":true,"correct":true,"response":"arrowleft","trial_type":"html-keyboard-response","stimulus":"<div class=\"small blue\"><p>2</p></div><span class=\"dot blue\"></span><span class=\"dot ylw\"></span><p>Is the color of the number blue or yellow? Please press the left arrow key if the color is blue and the right arrow key if the color is yellow.</p>","time_elapsed":34334,"trial_index":3,"userId":"524d2272-d17f-42aa-b335-772a7ac10972","dateTime":"2021-11-13T00:02:34.579Z","isRelevant":false},{"internal_node_id":"0.0-0.0-3.0-1.0","rt":3799,"isTraining":true,"response":" ","trial_type":"html-keyboard-response","stimulus":"<p>Excellent! That is the correct answer.</p><br/><em>Please press the space bar to continue.</em>","time_elapsed":38135,"trial_index":4,"userId":"524d2272-d17f-42aa-b335-772a7ac10972","dateTime":"2021-11-13T00:02:38.379Z","isRelevant":false},{"internal_node_id":"0.0-0.0-4.0-0.0","rt":2954,"isTraining":true,"correct":true,"response":"arrowright","trial_type":"html-keyboard-response","stimulus":"<div class=\"big ylw\"><p>2</p></div><span class=\"smalldot\"></span><span class=\"dot white\"></span><p> Is the number displayed in a small or big font? Please press the left arrow key if the font is small and the right arrow key if the font is large.</p>","time_elapsed":41095,"trial_index":5,"userId":"524d2272-d17f-42aa-b335-772a7ac10972","dateTime":"2021-11-13T00:02:41.340Z","isRelevant":false},{"internal_node_id":"0.0-0.0-4.0-1.0","rt":3398,"isTraining":true,"response":" ","trial_type":"html-keyboard-response","stimulus":"<p>Excellent! That is the correct answer.</p><br/><em>Please press the space bar to continue.</em>","time_elapsed":44495,"trial_index":6,"userId":"524d2272-d17f-42aa-b335-772a7ac10972","dateTime":"2021-11-13T00:02:44.740Z","isRelevant":false},{"internal_node_id":"0.0-0.0-5.0","rt":4021,"response":" ","trial_type":"html-keyboard-response","stimulus":"<p>That’s the basic task! Simple, right? Ready to start the real task?</p><em>Please press the space bar to proceed.</em>","time_elapsed":48521,"trial_index":7,"userId":"524d2272-d17f-42aa-b335-772a7ac10972","dateTime":"2021-11-13T00:02:48.765Z","isRelevant":false},{"internal_node_id":"0.0-0.0-6.0","rt":3106,"response":" ","trial_type":"html-keyboard-response","stimulus":"We are going to start a round of the task. Please respond as quickly as you can but try to avoid mistakes.<p>In this round, you will be categorizing numbers on whether they are greater or less than 5.</p><div class=\"small\"><span class=\"leftVal\"><5</span> <span>>5</span></div><br/><div style=\"padding-top: 40px;\"\"><em>Press the space bar when you are ready to begin</em></div>","time_elapsed":51632,"trial_index":8,"userId":"524d2272-d17f-42aa-b335-772a7ac10972","dateTime":"2021-11-13T00:02:51.876Z","isRelevant":false},{"internal_node_id":"0.0-0.0-7.0-0.0","rt":null,"response":null,"trial_type":"html-keyboard-response","stimulus":"<div class=\"small\"><span class=\"leftVal\"><5</span> <span>>5</span></div>","time_elapsed":52136,"trial_index":9,"userId":"524d2272-d17f-42aa-b335-772a7ac10972","dateTime":"2021-11-13T00:02:52.381Z","isRelevant":false},{"internal_node_id":"0.0-0.0-7.0-1.0","rt":756,"color":"ylw","correct":false,"stimulus":"<div class=\"small ylw\"><p>8</p></div><div class=\"small\"><span class=\"leftVal\"><5</span> <span>>5</span></div>","blockType":"single","time_elapsed":52895,"number":8,"taskType":"number","size":"small","response":"arrowleft","trial_type":"html-keyboard-response","trial_index":10,"userId":"524d2272-d17f-42aa-b335-772a7ac10972","dateTime":"2021-11-13T00:02:53.140Z","isRelevant":true},{"internal_node_id":"0.0-0.0-7.0-2.0","rt":null,"response":null,"trial_type":"html-keyboard-response","stimulus":"<div class=\"fix\">+</div><br/><span class=\"dot\">","time_elapsed":53401,"trial_index":11,"userId":"524d2272-d17f-42aa-b335-772a7ac10972","dateTime":"2021-11-13T00:02:53.645Z","isRelevant":false},{"internal_node_id":"0.0-0.0-7.0-0.1","rt":null,"response":null,"trial_type":"html-keyboard-response","stimulus":"<div class=\"small\"><span class=\"leftVal\"><5</span> <span>>5</span></div>","time_elapsed":53903,"trial_index":12,"userId":"524d2272-d17f-42aa-b335-772a7ac10972","dateTime":"2021-11-13T00:02:54.148Z","isRelevant":false},{"internal_node_id":"0.0-0.0-7.0-1.1","rt":1117,"color":"ylw","correct":true,"stimulus":"<div class=\"big ylw\"><p>9</p></div><div class=\"small\"><span class=\"leftVal\"><5</span> <span>>5</span></div>","blockType":"single","time_elapsed":55024,"number":9,"taskType":"number","size":"big","response":"arrowright","trial_type":"html-keyboard-response","trial_index":13,"userId":"524d2272-d17f-42aa-b335-772a7ac10972","dateTime":"2021-11-13T00:02:55.268Z","isRelevant":true},{"internal_node_id":"0.0-0.0-7.0-2.1","rt":null,"response":null,"trial_type":"html-keyboard-response","stimulus":"<div class=\"fix\">+</div><br/><span class=\"dot\">","time_elapsed":55526,"trial_index":14,"userId":"524d2272-d17f-42aa-b335-772a7ac10972","dateTime":"2021-11-13T00:02:55.771Z","isRelevant":false},{"internal_node_id":"0.0-0.0-7.0-0.2","rt":null,"response":null,"trial_type":"html-keyboard-response","stimulus":"<div class=\"small\"><span class=\"leftVal\"><5</span> <span>>5</span></div>","time_elapsed":56031,"trial_index":15,"userId":"524d2272-d17f-42aa-b335-772a7ac10972","dateTime":"2021-11-13T00:02:56.275Z","isRelevant":false},{"internal_node_id":"0.0-0.0-7.0-1.2","rt":1359,"color":"blue","correct":true,"stimulus":"<div class=\"small blue\"><p>9</p></div><div class=\"small\"><span class=\"leftVal\"><5</span> <span>>5</span></div>","blockType":"single","time_elapsed":57391,"number":9,"taskType":"number","size":"small","response":"arrowright","trial_type":"html-keyboard-response","trial_index":16,"userId":"524d2272-d17f-42aa-b335-772a7ac10972","dateTime":"2021-11-13T00:02:57.635Z","isRelevant":true},{"internal_node_id":"0.0-0.0-7.0-2.2","rt":null,"response":null,"trial_type":"html-keyboard-response","stimulus":"<div class=\"fix\">+</div><br/><span class=\"dot\">","time_elapsed":57894,"trial_index":17,"userId":"524d2272-d17f-42aa-b335-772a7ac10972","dateTime":"2021-11-13T00:02:58.139Z","isRelevant":false},{"internal_node_id":"0.0-0.0-7.0-0.3","rt":null,"response":null,"trial_type":"html-keyboard-response","stimulus":"<div class=\"small\"><span class=\"leftVal\"><5</span> <span>>5</span></div>","time_elapsed":58399,"trial_index":18,"userId":"524d2272-d17f-42aa-b335-772a7ac10972","dateTime":"2021-11-13T00:02:58.644Z","isRelevant":false},{"internal_node_id":"0.0-0.0-7.0-1.3","rt":1117,"color":"blue","correct":true,"stimulus":"<div class=\"big blue\"><p>9</p></div><div class=\"small\"><span class=\"leftVal\"><5</span> <span>>5</span></div>","blockType":"single","time_elapsed":59520,"number":9,"taskType":"number","size":"big","response":"arrowright","trial_type":"html-keyboard-response","trial_index":19,"userId":"524d2272-d17f-42aa-b335-772a7ac10972","dateTime":"2021-11-13T00:02:59.764Z","isRelevant":true},{"internal_node_id":"0.0-0.0-7.0-2.3","rt":null,"response":null,"trial_type":"html-keyboard-response","stimulus":"<div class=\"fix\">+</div><br/><span class=\"dot\">","time_elapsed":60025,"trial_index":20,"userId":"524d2272-d17f-42aa-b335-772a7ac10972","dateTime":"2021-11-13T00:03:00.270Z","isRelevant":false},{"internal_node_id":"0.0-0.0-7.0-0.4","rt":null,"response":null,"trial_type":"html-keyboard-response","stimulus":"<div class=\"small\"><span class=\"leftVal\"><5</span> <span>>5</span></div>","time_elapsed":60530,"trial_index":21,"userId":"524d2272-d17f-42aa-b335-772a7ac10972","dateTime":"2021-11-13T00:03:00.774Z","isRelevant":false},{"internal_node_id":"0.0-0.0-7.0-1.4","rt":740,"color":"blue","correct":true,"stimulus":"<div class=\"big blue\"><p>8</p></div><div class=\"small\"><span class=\"leftVal\"><5</span> <span>>5</span></div>","blockType":"single","time_elapsed":61271,"number":8,"taskType":"number","size":"big","response":"arrowright","trial_type":"html-keyboard-response","trial_index":22,"userId":"524d2272-d17f-42aa-b335-772a7ac10972","dateTime":"2021-11-13T00:03:01.516Z","isRelevant":true},{"internal_node_id":"0.0-0.0-7.0-2.4","rt":null,"response":null,"trial_type":"html-keyboard-response","stimulus":"<div class=\"fix\">+</div><br/><span class=\"dot\">","time_elapsed":61775,"trial_index":23,"userId":"524d2272-d17f-42aa-b335-772a7ac10972","dateTime":"2021-11-13T00:03:02.021Z","isRelevant":false},{"internal_node_id":"0.0-0.0-7.0-0.5","rt":null,"response":null,"trial_type":"html-keyboard-response","stimulus":"<div class=\"small\"><span class=\"leftVal\"><5</span> <span>>5</span></div>","time_elapsed":62284,"trial_index":24,"userId":"524d2272-d17f-42aa-b335-772a7ac10972","dateTime":"2021-11-13T00:03:02.528Z","isRelevant":false},{"internal_node_id":"0.0-0.0-7.0-1.5","rt":466,"color":"blue","correct":true,"stimulus":"<div class=\"small blue\"><p>9</p></div><div class=\"small\"><span class=\"leftVal\"><5</span> <span>>5</span></div>","blockType":"single","time_elapsed":62752,"number":9,"taskType":"number","size":"small","response":"arrowright","trial_type":"html-keyboard-response","trial_index":25,"userId":"524d2272-d17f-42aa-b335-772a7ac10972","dateTime":"2021-11-13T00:03:02.996Z","isRelevant":true},{"internal_node_id":"0.0-0.0-7.0-2.5","rt":null,"response":null,"trial_type":"html-keyboard-response","stimulus":"<div class=\"fix\">+</div><br/><span class=\"dot\">","time_elapsed":63255,"trial_index":26,"userId":"524d2272-d17f-42aa-b335-772a7ac10972","dateTime":"2021-11-13T00:03:03.499Z","isRelevant":false},{"internal_node_id":"0.0-0.0-7.0-0.6","rt":null,"response":null,"trial_type":"html-keyboard-response","stimulus":"<div class=\"small\"><span class=\"leftVal\"><5</span> <span>>5</span></div>","time_elapsed":63758,"trial_index":27,"userId":"524d2272-d17f-42aa-b335-772a7ac10972","dateTime":"2021-11-13T00:03:04.002Z","isRelevant":false},{"internal_node_id":"0.0-0.0-7.0-1.6","rt":1071,"color":"ylw","correct":true,"stimulus":"<div class=\"small ylw\"><p>9</p></div><div class=\"small\"><span class=\"leftVal\"><5</span> <span>>5</span></div>","blockType":"single","time_elapsed":64832,"number":9,"taskType":"number","size":"small","response":"arrowright","trial_type":"html-keyboard-response","trial_index":28,"userId":"524d2272-d17f-42aa-b335-772a7ac10972","dateTime":"2021-11-13T00:03:05.076Z","isRelevant":true},{"internal_node_id":"0.0-0.0-7.0-2.6","rt":null,"response":null,"trial_type":"html-keyboard-response","stimulus":"<div class=\"fix\">+</div><br/><span class=\"dot\">","time_elapsed":65335,"trial_index":29,"userId":"524d2272-d17f-42aa-b335-772a7ac10972","dateTime":"2021-11-13T00:03:05.580Z","isRelevant":false},{"internal_node_id":"0.0-0.0-7.0-0.7","rt":null,"response":null,"trial_type":"html-keyboard-response","stimulus":"<div class=\"small\"><span class=\"leftVal\"><5</span> <span>>5</span></div>","time_elapsed":65838,"trial_index":30,"userId":"524d2272-d17f-42aa-b335-772a7ac10972","dateTime":"2021-11-13T00:03:06.083Z","isRelevant":false},{"internal_node_id":"0.0-0.0-7.0-1.7","rt":771,"color":"ylw","correct":true,"stimulus":"<div class=\"big ylw\"><p>8</p></div><div class=\"small\"><span class=\"leftVal\"><5</span> <span>>5</span></div>","blockType":"single","time_elapsed":66615,"number":8,"taskType":"number","size":"big","response":"arrowright","trial_type":"html-keyboard-response","trial_index":31,"userId":"524d2272-d17f-42aa-b335-772a7ac10972","dateTime":"2021-11-13T00:03:06.860Z","isRelevant":true},{"internal_node_id":"0.0-0.0-7.0-2.7","rt":null,"response":null,"trial_type":"html-keyboard-response","stimulus":"<div class=\"fix\">+</div><br/><span class=\"dot\">","time_elapsed":67121,"trial_index":32,"userId":"524d2272-d17f-42aa-b335-772a7ac10972","dateTime":"2021-11-13T00:03:07.366Z","isRelevant":false},{"internal_node_id":"0.0-0.0-7.0-0.8","rt":null,"response":null,"trial_type":"html-keyboard-response","stimulus":"<div class=\"small\"><span class=\"leftVal\"><5</span> <span>>5</span></div>","time_elapsed":67623,"trial_index":33,"userId":"524d2272-d17f-42aa-b335-772a7ac10972","dateTime":"2021-11-13T00:03:07.868Z","isRelevant":false},{"internal_node_id":"0.0-0.0-7.0-1.8","rt":597,"color":"blue","correct":true,"stimulus":"<div class=\"big blue\"><p>7</p></div><div class=\"small\"><span class=\"leftVal\"><5</span> <span>>5</span></div>","blockType":"single","time_elapsed":68224,"number":7,"taskType":"number","size":"big","response":"arrowright","trial_type":"html-keyboard-response","trial_index":34,"userId":"524d2272-d17f-42aa-b335-772a7ac10972","dateTime":"2021-11-13T00:03:08.468Z","isRelevant":true},{"internal_node_id":"0.0-0.0-7.0-2.8","rt":null,"response":null,"trial_type":"html-keyboard-response","stimulus":"<div class=\"fix\">+</div><br/><span class=\"dot\">","time_elapsed":68727,"trial_index":35,"userId":"524d2272-d17f-42aa-b335-772a7ac10972","dateTime":"2021-11-13T00:03:08.971Z","isRelevant":false},{"internal_node_id":"0.0-0.0-7.0-0.9","rt":null,"response":null,"trial_type":"html-keyboard-response","stimulus":"<div class=\"small\"><span class=\"leftVal\"><5</span> <span>>5</span></div>","time_elapsed":69229,"trial_index":36,"userId":"524d2272-d17f-42aa-b335-772a7ac10972","dateTime":"2021-11-13T00:03:09.473Z","isRelevant":false},{"internal_node_id":"0.0-0.0-7.0-1.9","rt":777,"color":"ylw","correct":true,"stimulus":"<div class=\"small ylw\"><p>9</p></div><div class=\"small\"><span class=\"leftVal\"><5</span> <span>>5</span></div>","blockType":"single","time_elapsed":70008,"number":9,"taskType":"number","size":"small","response":"arrowright","trial_type":"html-keyboard-response","trial_index":37,"userId":"524d2272-d17f-42aa-b335-772a7ac10972","dateTime":"2021-11-13T00:03:10.253Z","isRelevant":true},{"internal_node_id":"0.0-0.0-7.0-2.9","rt":null,"response":null,"trial_type":"html-keyboard-response","stimulus":"<div class=\"fix\">+</div><br/><span class=\"dot\">","time_elapsed":70514,"trial_index":38,"userId":"524d2272-d17f-42aa-b335-772a7ac10972","dateTime":"2021-11-13T00:03:10.759Z","isRelevant":false},{"internal_node_id":"0.0-0.0-7.0-0.10","rt":null,"response":null,"trial_type":"html-keyboard-response","stimulus":"<div class=\"small\"><span class=\"leftVal\"><5</span> <span>>5</span></div>","time_elapsed":71017,"trial_index":39,"userId":"524d2272-d17f-42aa-b335-772a7ac10972","dateTime":"2021-11-13T00:03:11.261Z","isRelevant":false},{"internal_node_id":"0.0-0.0-7.0-1.10","rt":661,"color":"blue","correct":true,"stimulus":"<div class=\"big blue\"><p>8</p></div><div class=\"small\"><span class=\"leftVal\"><5</span> <span>>5</span></div>","blockType":"single","time_elapsed":71680,"number":8,"taskType":"number","size":"big","response":"arrowright","trial_type":"html-keyboard-response","trial_index":40,"userId":"524d2272-d17f-42aa-b335-772a7ac10972","dateTime":"2021-11-13T00:03:11.924Z","isRelevant":true},{"internal_node_id":"0.0-0.0-7.0-2.10","rt":null,"response":null,"trial_type":"html-keyboard-response","stimulus":"<div class=\"fix\">+</div><br/><span class=\"dot\">","time_elapsed":72184,"trial_index":41,"userId":"524d2272-d17f-42aa-b335-772a7ac10972","dateTime":"2021-11-13T00:03:12.428Z","isRelevant":false},{"internal_node_id":"0.0-0.0-7.0-0.11","rt":null,"response":null,"trial_type":"html-keyboard-response","stimulus":"<div class=\"small\"><span class=\"leftVal\"><5</span> <span>>5</span></div>","time_elapsed":72689,"trial_index":42,"userId":"524d2272-d17f-42aa-b335-772a7ac10972","dateTime":"2021-11-13T00:03:12.933Z","isRelevant":false},{"internal_node_id":"0.0-0.0-7.0-1.11","rt":574,"color":"blue","correct":true,"stimulus":"<div class=\"small blue\"><p>8</p></div><div class=\"small\"><span class=\"leftVal\"><5</span> <span>>5</span></div>","blockType":"single","time_elapsed":73264,"number":8,"taskType":"number","size":"small","response":"arrowright","trial_type":"html-keyboard-response","trial_index":43,"userId":"524d2272-d17f-42aa-b335-772a7ac10972","dateTime":"2021-11-13T00:03:13.509Z","isRelevant":true},{"internal_node_id":"0.0-0.0-7.0-2.11","rt":null,"response":null,"trial_type":"html-keyboard-response","stimulus":"<div class=\"fix\">+</div><br/><span class=\"dot\">","time_elapsed":73768,"trial_index":44,"userId":"524d2272-d17f-42aa-b335-772a7ac10972","dateTime":"2021-11-13T00:03:14.012Z","isRelevant":false},{"internal_node_id":"0.0-0.0-7.0-0.12","rt":null,"response":null,"trial_type":"html-keyboard-response","stimulus":"<div class=\"small\"><span class=\"leftVal\"><5</span> <span>>5</span></div>","time_elapsed":74271,"trial_index":45,"userId":"524d2272-d17f-42aa-b335-772a7ac10972","dateTime":"2021-11-13T00:03:14.516Z","isRelevant":false},{"internal_node_id":"0.0-0.0-7.0-1.12","rt":597,"color":"ylw","correct":true,"stimulus":"<div class=\"small ylw\"><p>9</p></div><div class=\"small\"><span class=\"leftVal\"><5</span> <span>>5</span></div>","blockType":"single","time_elapsed":74872,"number":9,"taskType":"number","size":"small","response":"arrowright","trial_type":"html-keyboard-response","trial_index":46,"userId":"524d2272-d17f-42aa-b335-772a7ac10972","dateTime":"2021-11-13T00:03:15.116Z","isRelevant":true},{"internal_node_id":"0.0-0.0-7.0-2.12","rt":null,"response":null,"trial_type":"html-keyboard-response","stimulus":"<div class=\"fix\">+</div><br/><span class=\"dot\">","time_elapsed":75376,"trial_index":47,"userId":"524d2272-d17f-42aa-b335-772a7ac10972","dateTime":"2021-11-13T00:03:15.621Z","isRelevant":false},{"internal_node_id":"0.0-0.0-7.0-0.13","rt":null,"response":null,"trial_type":"html-keyboard-response","stimulus":"<div class=\"small\"><span class=\"leftVal\"><5</span> <span>>5</span></div>","time_elapsed":75879,"trial_index":48,"userId":"524d2272-d17f-42aa-b335-772a7ac10972","dateTime":"2021-11-13T00:03:16.123Z","isRelevant":false},{"internal_node_id":"0.0-0.0-7.0-1.13","rt":520,"color":"blue","correct":true,"stimulus":"<div class=\"big blue\"><p>1</p></div><div class=\"small\"><span class=\"leftVal\"><5</span> <span>>5</span></div>","blockType":"single","time_elapsed":76401,"number":1,"taskType":"number","size":"big","response":"arrowleft","trial_type":"html-keyboard-response","trial_index":49,"userId":"524d2272-d17f-42aa-b335-772a7ac10972","dateTime":"2021-11-13T00:03:16.645Z","isRelevant":true},{"internal_node_id":"0.0-0.0-7.0-2.13","rt":null,"response":null,"trial_type":"html-keyboard-response","stimulus":"<div class=\"fix\">+</div><br/><span class=\"dot\">","time_elapsed":76902,"trial_index":50,"userId":"524d2272-d17f-42aa-b335-772a7ac10972","dateTime":"2021-11-13T00:03:17.147Z","isRelevant":false},{"internal_node_id":"0.0-0.0-7.0-0.14","rt":null,"response":null,"trial_type":"html-keyboard-response","stimulus":"<div class=\"small\"><span class=\"leftVal\"><5</span> <span>>5</span></div>","time_elapsed":77409,"trial_index":51,"userId":"524d2272-d17f-42aa-b335-772a7ac10972","dateTime":"2021-11-13T00:03:17.653Z","isRelevant":false},{"internal_node_id":"0.0-0.0-7.0-1.14","rt":581,"color":"ylw","correct":true,"stimulus":"<div class=\"big ylw\"><p>6</p></div><div class=\"small\"><span class=\"leftVal\"><5</span> <span>>5</span></div>","blockType":"single","time_elapsed":77992,"number":6,"taskType":"number","size":"big","response":"arrowright","trial_type":"html-keyboard-response","trial_index":52,"userId":"524d2272-d17f-42aa-b335-772a7ac10972","dateTime":"2021-11-13T00:03:18.236Z","isRelevant":true},{"internal_node_id":"0.0-0.0-7.0-2.14","rt":null,"response":null,"trial_type":"html-keyboard-response","stimulus":"<div class=\"fix\">+</div><br/><span class=\"dot\">","time_elapsed":78495,"trial_index":53,"userId":"524d2272-d17f-42aa-b335-772a7ac10972","dateTime":"2021-11-13T00:03:18.739Z","isRelevant":false},{"internal_node_id":"0.0-0.0-7.0-0.15","rt":null,"response":null,"trial_type":"html-keyboard-response","stimulus":"<div class=\"small\"><span class=\"leftVal\"><5</span> <span>>5</span></div>","time_elapsed":79002,"trial_index":54,"userId":"524d2272-d17f-42aa-b335-772a7ac10972","dateTime":"2021-11-13T00:03:19.247Z","isRelevant":false},{"internal_node_id":"0.0-0.0-7.0-1.15","rt":539,"color":"ylw","correct":true,"stimulus":"<div class=\"big ylw\"><p>3</p></div><div class=\"small\"><span class=\"leftVal\"><5</span> <span>>5</span></div>","blockType":"single","time_elapsed":79544,"number":3,"taskType":"number","size":"big","response":"arrowleft","trial_type":"html-keyboard-response","trial_index":55,"userId":"524d2272-d17f-42aa-b335-772a7ac10972","dateTime":"2021-11-13T00:03:19.789Z","isRelevant":true},{"internal_node_id":"0.0-0.0-7.0-2.15","rt":null,"response":null,"trial_type":"html-keyboard-response","stimulus":"<div class=\"fix\">+</div><br/><span class=\"dot\">","time_elapsed":80047,"trial_index":56,"userId":"524d2272-d17f-42aa-b335-772a7ac10972","dateTime":"2021-11-13T00:03:20.292Z","isRelevant":false},{"internal_node_id":"0.0-0.0-7.0-0.16","rt":null,"response":null,"trial_type":"html-keyboard-response","stimulus":"<div class=\"small\"><span class=\"leftVal\"><5</span> <span>>5</span></div>","time_elapsed":80552,"trial_index":57,"userId":"524d2272-d17f-42aa-b335-772a7ac10972","dateTime":"2021-11-13T00:03:20.796Z","isRelevant":false},{"internal_node_id":"0.0-0.0-7.0-1.16","rt":782,"color":"ylw","correct":true,"stimulus":"<div class=\"big ylw\"><p>6</p></div><div class=\"small\"><span class=\"leftVal\"><5</span> <span>>5</span></div>","blockType":"single","time_elapsed":81336,"number":6,"taskType":"number","size":"big","response":"arrowright","trial_type":"html-keyboard-response","trial_index":58,"userId":"524d2272-d17f-42aa-b335-772a7ac10972","dateTime":"2021-11-13T00:03:21.581Z","isRelevant":true},{"internal_node_id":"0.0-0.0-7.0-2.16","rt":null,"response":null,"trial_type":"html-keyboard-response","stimulus":"<div class=\"fix\">+</div><br/><span class=\"dot\">","time_elapsed":81841,"trial_index":59,"userId":"524d2272-d17f-42aa-b335-772a7ac10972","dateTime":"2021-11-13T00:03:22.085Z","isRelevant":false},{"internal_node_id":"0.0-0.0-7.0-0.17","rt":null,"response":null,"trial_type":"html-keyboard-response","stimulus":"<div class=\"small\"><span class=\"leftVal\"><5</span> <span>>5</span></div>","time_elapsed":82343,"trial_index":60,"userId":"524d2272-d17f-42aa-b335-772a7ac10972","dateTime":"2021-11-13T00:03:22.588Z","isRelevant":false},{"internal_node_id":"0.0-0.0-7.0-1.17","rt":516,"color":"ylw","correct":true,"stimulus":"<div class=\"big ylw\"><p>9</p></div><div class=\"small\"><span class=\"leftVal\"><5</span> <span>>5</span></div>","blockType":"single","time_elapsed":82864,"number":9,"taskType":"number","size":"big","response":"arrowright","trial_type":"html-keyboard-response","trial_index":61,"userId":"524d2272-d17f-42aa-b335-772a7ac10972","dateTime":"2021-11-13T00:03:23.108Z","isRelevant":true},{"internal_node_id":"0.0-0.0-7.0-2.17","rt":null,"response":null,"trial_type":"html-keyboard-response","stimulus":"<div class=\"fix\">+</div><br/><span class=\"dot\">","time_elapsed":83370,"trial_index":62,"userId":"524d2272-d17f-42aa-b335-772a7ac10972","dateTime":"2021-11-13T00:03:23.614Z","isRelevant":false},{"internal_node_id":"0.0-0.0-7.0-0.18","rt":null,"response":null,"trial_type":"html-keyboard-response","stimulus":"<div class=\"small\"><span class=\"leftVal\"><5</span> <span>>5</span></div>","time_elapsed":83873,"trial_index":63,"userId":"524d2272-d17f-42aa-b335-772a7ac10972","dateTime":"2021-11-13T00:03:24.117Z","isRelevant":false},{"internal_node_id":"0.0-0.0-7.0-1.18","rt":526,"color":"blue","correct":true,"stimulus":"<div class=\"big blue\"><p>9</p></div><div class=\"small\"><span class=\"leftVal\"><5</span> <span>>5</span></div>","blockType":"single","time_elapsed":84400,"number":9,"taskType":"number","size":"big","response":"arrowright","trial_type":"html-keyboard-response","trial_index":64,"userId":"524d2272-d17f-42aa-b335-772a7ac10972","dateTime":"2021-11-13T00:03:24.645Z","isRelevant":true},{"internal_node_id":"0.0-0.0-7.0-2.18","rt":null,"response":null,"trial_type":"html-keyboard-response","stimulus":"<div class=\"fix\">+</div><br/><span class=\"dot\">","time_elapsed":84903,"trial_index":65,"userId":"524d2272-d17f-42aa-b335-772a7ac10972","dateTime":"2021-11-13T00:03:25.148Z","isRelevant":false},{"internal_node_id":"0.0-0.0-7.0-0.19","rt":null,"response":null,"trial_type":"html-keyboard-response","stimulus":"<div class=\"small\"><span class=\"leftVal\"><5</span> <span>>5</span></div>","time_elapsed":85405,"trial_index":66,"userId":"524d2272-d17f-42aa-b335-772a7ac10972","dateTime":"2021-11-13T00:03:25.650Z","isRelevant":false},{"internal_node_id":"0.0-0.0-7.0-1.19","rt":809,"color":"blue","correct":true,"stimulus":"<div class=\"small blue\"><p>6</p></div><div class=\"small\"><span class=\"leftVal\"><5</span> <span>>5</span></div>","blockType":"single","time_elapsed":86216,"number":6,"taskType":"number","size":"small","response":"arrowright","trial_type":"html-keyboard-response","trial_index":67,"userId":"524d2272-d17f-42aa-b335-772a7ac10972","dateTime":"2021-11-13T00:03:26.461Z","isRelevant":true},{"internal_node_id":"0.0-0.0-7.0-2.19","rt":null,"response":null,"trial_type":"html-keyboard-response","stimulus":"<div class=\"fix\">+</div><br/><span class=\"dot\">","time_elapsed":86719,"trial_index":68,"userId":"524d2272-d17f-42aa-b335-772a7ac10972","dateTime":"2021-11-13T00:03:26.964Z","isRelevant":false},{"internal_node_id":"0.0-0.0-7.0-0.20","rt":null,"response":null,"trial_type":"html-keyboard-response","stimulus":"<div class=\"small\"><span class=\"leftVal\"><5</span> <span>>5</span></div>","time_elapsed":87225,"trial_index":69,"userId":"524d2272-d17f-42aa-b335-772a7ac10972","dateTime":"2021-11-13T00:03:27.469Z","isRelevant":false},{"internal_node_id":"0.0-0.0-7.0-1.20","rt":878,"color":"blue","correct":true,"stimulus":"<div class=\"big blue\"><p>8</p></div><div class=\"small\"><span class=\"leftVal\"><5</span> <span>>5</span></div>","blockType":"single","time_elapsed":88105,"number":8,"taskType":"number","size":"big","response":"arrowright","trial_type":"html-keyboard-response","trial_index":70,"userId":"524d2272-d17f-42aa-b335-772a7ac10972","dateTime":"2021-11-13T00:03:28.349Z","isRelevant":true},{"internal_node_id":"0.0-0.0-7.0-2.20","rt":null,"response":null,"trial_type":"html-keyboard-response","stimulus":"<div class=\"fix\">+</div><br/><span class=\"dot\">","time_elapsed":88609,"trial_index":71,"userId":"524d2272-d17f-42aa-b335-772a7ac10972","dateTime":"2021-11-13T00:03:28.854Z","isRelevant":false},{"internal_node_id":"0.0-0.0-7.0-0.21","rt":null,"response":null,"trial_type":"html-keyboard-response","stimulus":"<div class=\"small\"><span class=\"leftVal\"><5</span> <span>>5</span></div>","time_elapsed":89112,"trial_index":72,"userId":"524d2272-d17f-42aa-b335-772a7ac10972","dateTime":"2021-11-13T00:03:29.356Z","isRelevant":false},{"internal_node_id":"0.0-0.0-7.0-1.21","rt":919,"color":"blue","correct":true,"stimulus":"<div class=\"small blue\"><p>3</p></div><div class=\"small\"><span class=\"leftVal\"><5</span> <span>>5</span></div>","blockType":"single","time_elapsed":90033,"number":3,"taskType":"number","size":"small","response":"arrowleft","trial_type":"html-keyboard-response","trial_index":73,"userId":"524d2272-d17f-42aa-b335-772a7ac10972","dateTime":"2021-11-13T00:03:30.277Z","isRelevant":true},{"internal_node_id":"0.0-0.0-7.0-2.21","rt":null,"response":null,"trial_type":"html-keyboard-response","stimulus":"<div class=\"fix\">+</div><br/><span class=\"dot\">","time_elapsed":90538,"trial_index":74,"userId":"524d2272-d17f-42aa-b335-772a7ac10972","dateTime":"2021-11-13T00:03:30.783Z","isRelevant":false},{"internal_node_id":"0.0-0.0-7.0-0.22","rt":null,"response":null,"trial_type":"html-keyboard-response","stimulus":"<div class=\"small\"><span class=\"leftVal\"><5</span> <span>>5</span></div>","time_elapsed":91048,"trial_index":75,"userId":"524d2272-d17f-42aa-b335-772a7ac10972","dateTime":"2021-11-13T00:03:31.292Z","isRelevant":false},{"internal_node_id":"0.0-0.0-7.0-1.22","rt":541,"color":"ylw","correct":true,"stimulus":"<div class=\"small ylw\"><p>7</p></div><div class=\"small\"><span class=\"leftVal\"><5</span> <span>>5</span></div>","blockType":"single","time_elapsed":91592,"number":7,"taskType":"number","size":"small","response":"arrowright","trial_type":"html-keyboard-response","trial_index":76,"userId":"524d2272-d17f-42aa-b335-772a7ac10972","dateTime":"2021-11-13T00:03:31.837Z","isRelevant":true},{"internal_node_id":"0.0-0.0-7.0-2.22","rt":null,"response":null,"trial_type":"html-keyboard-response","stimulus":"<div class=\"fix\">+</div><br/><span class=\"dot\">","time_elapsed":92095,"trial_index":77,"userId":"524d2272-d17f-42aa-b335-772a7ac10972","dateTime":"2021-11-13T00:03:32.339Z","isRelevant":false},{"internal_node_id":"0.0-0.0-7.0-0.23","rt":null,"response":null,"trial_type":"html-keyboard-response","stimulus":"<div class=\"small\"><span class=\"leftVal\"><5</span> <span>>5</span></div>","time_elapsed":92602,"trial_index":78,"userId":"524d2272-d17f-42aa-b335-772a7ac10972","dateTime":"2021-11-13T00:03:32.846Z","isRelevant":false},{"internal_node_id":"0.0-0.0-7.0-1.23","rt":772,"color":"ylw","correct":true,"stimulus":"<div class=\"big ylw\"><p>3</p></div><div class=\"small\"><span class=\"leftVal\"><5</span> <span>>5</span></div>","blockType":"single","time_elapsed":93376,"number":3,"taskType":"number","size":"big","response":"arrowleft","trial_type":"html-keyboard-response","trial_index":79,"userId":"524d2272-d17f-42aa-b335-772a7ac10972","dateTime":"2021-11-13T00:03:33.621Z","isRelevant":true},{"internal_node_id":"0.0-0.0-7.0-2.23","rt":null,"response":null,"trial_type":"html-keyboard-response","stimulus":"<div class=\"fix\">+</div><br/><span class=\"dot\">","time_elapsed":93881,"trial_index":80,"userId":"524d2272-d17f-42aa-b335-772a7ac10972","dateTime":"2021-11-13T00:03:34.125Z","isRelevant":false},{"internal_node_id":"0.0-0.0-7.0-0.24","rt":null,"response":null,"trial_type":"html-keyboard-response","stimulus":"<div class=\"small\"><span class=\"leftVal\"><5</span> <span>>5</span></div>","time_elapsed":94383,"trial_index":81,"userId":"524d2272-d17f-42aa-b335-772a7ac10972","dateTime":"2021-11-13T00:03:34.627Z","isRelevant":false},{"internal_node_id":"0.0-0.0-7.0-1.24","rt":423,"color":"blue","correct":true,"stimulus":"<div class=\"big blue\"><p>3</p></div><div class=\"small\"><span class=\"leftVal\"><5</span> <span>>5</span></div>","blockType":"single","time_elapsed":94809,"number":3,"taskType":"number","size":"big","response":"arrowleft","trial_type":"html-keyboard-response","trial_index":82,"userId":"524d2272-d17f-42aa-b335-772a7ac10972","dateTime":"2021-11-13T00:03:35.053Z","isRelevant":true},{"internal_node_id":"0.0-0.0-7.0-2.24","rt":null,"response":null,"trial_type":"html-keyboard-response","stimulus":"<div class=\"fix\">+</div><br/><span class=\"dot\">","time_elapsed":95317,"trial_index":83,"userId":"524d2272-d17f-42aa-b335-772a7ac10972","dateTime":"2021-11-13T00:03:35.561Z","isRelevant":false},{"internal_node_id":"0.0-0.0-7.0-0.25","rt":null,"response":null,"trial_type":"html-keyboard-response","stimulus":"<div class=\"small\"><span class=\"leftVal\"><5</span> <span>>5</span></div>","time_elapsed":95819,"trial_index":84,"userId":"524d2272-d17f-42aa-b335-772a7ac10972","dateTime":"2021-11-13T00:03:36.064Z","isRelevant":false},{"internal_node_id":"0.0-0.0-7.0-1.25","rt":635,"color":"blue","correct":true,"stimulus":"<div class=\"small blue\"><p>1</p></div><div class=\"small\"><span class=\"leftVal\"><5</span> <span>>5</span></div>","blockType":"single","time_elapsed":96457,"number":1,"taskType":"number","size":"small","response":"arrowleft","trial_type":"html-keyboard-response","trial_index":85,"userId":"524d2272-d17f-42aa-b335-772a7ac10972","dateTime":"2021-11-13T00:03:36.702Z","isRelevant":true},{"internal_node_id":"0.0-0.0-7.0-2.25","rt":null,"response":null,"trial_type":"html-keyboard-response","stimulus":"<div class=\"fix\">+</div><br/><span class=\"dot\">","time_elapsed":96961,"trial_index":86,"userId":"524d2272-d17f-42aa-b335-772a7ac10972","dateTime":"2021-11-13T00:03:37.205Z","isRelevant":false},{"internal_node_id":"0.0-0.0-7.0-0.26","rt":null,"response":null,"trial_type":"html-keyboard-response","stimulus":"<div class=\"small\"><span class=\"leftVal\"><5</span> <span>>5</span></div>","time_elapsed":97467,"trial_index":87,"userId":"524d2272-d17f-42aa-b335-772a7ac10972","dateTime":"2021-11-13T00:03:37.711Z","isRelevant":false},{"internal_node_id":"0.0-0.0-7.0-1.26","rt":605,"color":"blue","correct":true,"stimulus":"<div class=\"small blue\"><p>2</p></div><div class=\"small\"><span class=\"leftVal\"><5</span> <span>>5</span></div>","blockType":"single","time_elapsed":98074,"number":2,"taskType":"number","size":"small","response":"arrowleft","trial_type":"html-keyboard-response","trial_index":88,"userId":"524d2272-d17f-42aa-b335-772a7ac10972","dateTime":"2021-11-13T00:03:38.318Z","isRelevant":true},{"internal_node_id":"0.0-0.0-7.0-2.26","rt":null,"response":null,"trial_type":"html-keyboard-response","stimulus":"<div class=\"fix\">+</div><br/><span class=\"dot\">","time_elapsed":98578,"trial_index":89,"userId":"524d2272-d17f-42aa-b335-772a7ac10972","dateTime":"2021-11-13T00:03:38.822Z","isRelevant":false},{"internal_node_id":"0.0-0.0-7.0-0.27","rt":null,"response":null,"trial_type":"html-keyboard-response","stimulus":"<div class=\"small\"><span class=\"leftVal\"><5</span> <span>>5</span></div>","time_elapsed":99081,"trial_index":90,"userId":"524d2272-d17f-42aa-b335-772a7ac10972","dateTime":"2021-11-13T00:03:39.327Z","isRelevant":false},{"internal_node_id":"0.0-0.0-7.0-1.27","rt":637,"color":"blue","correct":true,"stimulus":"<div class=\"big blue\"><p>9</p></div><div class=\"small\"><span class=\"leftVal\"><5</span> <span>>5</span></div>","blockType":"single","time_elapsed":99724,"number":9,"taskType":"number","size":"big","response":"arrowright","trial_type":"html-keyboard-response","trial_index":91,"userId":"524d2272-d17f-42aa-b335-772a7ac10972","dateTime":"2021-11-13T00:03:39.968Z","isRelevant":true},{"internal_node_id":"0.0-0.0-7.0-2.27","rt":null,"response":null,"trial_type":"html-keyboard-response","stimulus":"<div class=\"fix\">+</div><br/><span class=\"dot\">","time_elapsed":100226,"trial_index":92,"userId":"524d2272-d17f-42aa-b335-772a7ac10972","dateTime":"2021-11-13T00:03:40.470Z","isRelevant":false},{"internal_node_id":"0.0-0.0-7.0-0.28","rt":null,"response":null,"trial_type":"html-keyboard-response","stimulus":"<div class=\"small\"><span class=\"leftVal\"><5</span> <span>>5</span></div>","time_elapsed":100729,"trial_index":93,"userId":"524d2272-d17f-42aa-b335-772a7ac10972","dateTime":"2021-11-13T00:03:40.973Z","isRelevant":false},{"internal_node_id":"0.0-0.0-7.0-1.28","rt":714,"color":"blue","correct":true,"stimulus":"<div class=\"big blue\"><p>2</p></div><div class=\"small\"><span class=\"leftVal\"><5</span> <span>>5</span></div>","blockType":"single","time_elapsed":101445,"number":2,"taskType":"number","size":"big","response":"arrowleft","trial_type":"html-keyboard-response","trial_index":94,"userId":"524d2272-d17f-42aa-b335-772a7ac10972","dateTime":"2021-11-13T00:03:41.689Z","isRelevant":true},{"internal_node_id":"0.0-0.0-7.0-2.28","rt":null,"response":null,"trial_type":"html-keyboard-response","stimulus":"<div class=\"fix\">+</div><br/><span class=\"dot\">","time_elapsed":101952,"trial_index":95,"userId":"524d2272-d17f-42aa-b335-772a7ac10972","dateTime":"2021-11-13T00:03:42.196Z","isRelevant":false},{"internal_node_id":"0.0-0.0-7.0-0.29","rt":null,"response":null,"trial_type":"html-keyboard-response","stimulus":"<div class=\"small\"><span class=\"leftVal\"><5</span> <span>>5</span></div>","time_elapsed":102454,"trial_index":96,"userId":"524d2272-d17f-42aa-b335-772a7ac10972","dateTime":"2021-11-13T00:03:42.698Z","isRelevant":false},{"internal_node_id":"0.0-0.0-7.0-1.29","rt":646,"color":"ylw","correct":true,"stimulus":"<div class=\"small ylw\"><p>3</p></div><div class=\"small\"><span class=\"leftVal\"><5</span> <span>>5</span></div>","blockType":"single","time_elapsed":103102,"number":3,"taskType":"number","size":"small","response":"arrowleft","trial_type":"html-keyboard-response","trial_index":97,"userId":"524d2272-d17f-42aa-b335-772a7ac10972","dateTime":"2021-11-13T00:03:43.347Z","isRelevant":true},{"internal_node_id":"0.0-0.0-7.0-2.29","rt":null,"response":null,"trial_type":"html-keyboard-response","stimulus":"<div class=\"fix\">+</div><br/><span class=\"dot\">","time_elapsed":103610,"trial_index":98,"userId":"524d2272-d17f-42aa-b335-772a7ac10972","dateTime":"2021-11-13T00:03:43.854Z","isRelevant":false},{"internal_node_id":"0.0-0.0-7.0-0.30","rt":null,"response":null,"trial_type":"html-keyboard-response","stimulus":"<div class=\"small\"><span class=\"leftVal\"><5</span> <span>>5</span></div>","time_elapsed":104112,"trial_index":99,"userId":"524d2272-d17f-42aa-b335-772a7ac10972","dateTime":"2021-11-13T00:03:44.356Z","isRelevant":false},{"internal_node_id":"0.0-0.0-7.0-1.30","rt":548,"color":"ylw","correct":true,"stimulus":"<div class=\"small ylw\"><p>2</p></div><div class=\"small\"><span class=\"leftVal\"><5</span> <span>>5</span></div>","blockType":"single","time_elapsed":104663,"number":2,"taskType":"number","size":"small","response":"arrowleft","trial_type":"html-keyboard-response","trial_index":100,"userId":"524d2272-d17f-42aa-b335-772a7ac10972","dateTime":"2021-11-13T00:03:44.907Z","isRelevant":true},{"internal_node_id":"0.0-0.0-7.0-2.30","rt":null,"response":null,"trial_type":"html-keyboard-response","stimulus":"<div class=\"fix\">+</div><br/><span class=\"dot\">","time_elapsed":105166,"trial_index":101,"userId":"524d2272-d17f-42aa-b335-772a7ac10972","dateTime":"2021-11-13T00:03:45.411Z","isRelevant":false},{"internal_node_id":"0.0-0.0-7.0-0.31","rt":null,"response":null,"trial_type":"html-keyboard-response","stimulus":"<div class=\"small\"><span class=\"leftVal\"><5</span> <span>>5</span></div>","time_elapsed":105669,"trial_index":102,"userId":"524d2272-d17f-42aa-b335-772a7ac10972","dateTime":"2021-11-13T00:03:45.913Z","isRelevant":false},{"internal_node_id":"0.0-0.0-7.0-1.31","rt":673,"color":"blue","correct":true,"stimulus":"<div class=\"small blue\"><p>3</p></div><div class=\"small\"><span class=\"leftVal\"><5</span> <span>>5</span></div>","blockType":"single","time_elapsed":106343,"number":3,"taskType":"number","size":"small","response":"arrowleft","trial_type":"html-keyboard-response","trial_index":103,"userId":"524d2272-d17f-42aa-b335-772a7ac10972","dateTime":"2021-11-13T00:03:46.588Z","isRelevant":true},{"internal_node_id":"0.0-0.0-7.0-2.31","rt":null,"response":null,"trial_type":"html-keyboard-response","stimulus":"<div class=\"fix\">+</div><br/><span class=\"dot\">","time_elapsed":106851,"trial_index":104,"userId":"524d2272-d17f-42aa-b335-772a7ac10972","dateTime":"2021-11-13T00:03:47.095Z","isRelevant":false},{"internal_node_id":"0.0-0.0-7.0-0.32","rt":null,"response":null,"trial_type":"html-keyboard-response","stimulus":"<div class=\"small\"><span class=\"leftVal\"><5</span> <span>>5</span></div>","time_elapsed":107353,"trial_index":105,"userId":"524d2272-d17f-42aa-b335-772a7ac10972","dateTime":"2021-11-13T00:03:47.597Z","isRelevant":false},{"internal_node_id":"0.0-0.0-7.0-1.32","rt":515,"color":"ylw","correct":true,"stimulus":"<div class=\"big ylw\"><p>8</p></div><div class=\"small\"><span class=\"leftVal\"><5</span> <span>>5</span></div>","blockType":"single","time_elapsed":107873,"number":8,"taskType":"number","size":"big","response":"arrowright","trial_type":"html-keyboard-response","trial_index":106,"userId":"524d2272-d17f-42aa-b335-772a7ac10972","dateTime":"2021-11-13T00:03:48.117Z","isRelevant":true},{"internal_node_id":"0.0-0.0-7.0-2.32","rt":null,"response":null,"trial_type":"html-keyboard-response","stimulus":"<div class=\"fix\">+</div><br/><span class=\"dot\">","time_elapsed":108375,"trial_index":107,"userId":"524d2272-d17f-42aa-b335-772a7ac10972","dateTime":"2021-11-13T00:03:48.619Z","isRelevant":false},{"internal_node_id":"0.0-0.0-7.0-0.33","rt":null,"response":null,"trial_type":"html-keyboard-response","stimulus":"<div class=\"small\"><span class=\"leftVal\"><5</span> <span>>5</span></div>","time_elapsed":108879,"trial_index":108,"userId":"524d2272-d17f-42aa-b335-772a7ac10972","dateTime":"2021-11-13T00:03:49.123Z","isRelevant":false},{"internal_node_id":"0.0-0.0-7.0-1.33","rt":600,"color":"blue","correct":true,"stimulus":"<div class=\"small blue\"><p>2</p></div><div class=\"small\"><span class=\"leftVal\"><5</span> <span>>5</span></div>","blockType":"single","time_elapsed":109481,"number":2,"taskType":"number","size":"small","response":"arrowleft","trial_type":"html-keyboard-response","trial_index":109,"userId":"524d2272-d17f-42aa-b335-772a7ac10972","dateTime":"2021-11-13T00:03:49.726Z","isRelevant":true},{"internal_node_id":"0.0-0.0-7.0-2.33","rt":null,"response":null,"trial_type":"html-keyboard-response","stimulus":"<div class=\"fix\">+</div><br/><span class=\"dot\">","time_elapsed":109983,"trial_index":110,"userId":"524d2272-d17f-42aa-b335-772a7ac10972","dateTime":"2021-11-13T00:03:50.228Z","isRelevant":false},{"internal_node_id":"0.0-0.0-8.0","rt":3407,"response":" ","trial_type":"html-keyboard-response","stimulus":"We are going to start a round of the task. Please respond as quickly as you can but try to avoid mistakes.<p>In this round, you will be categorizing numbers on whether they are yellow or blue.</p><span class=\"dot blue\"></span><span class=\"dot ylw\"></span><br/><div style=\"padding-top: 40px;\"\"><em>Press the space bar when you are ready to begin</em></div>","time_elapsed":113395,"trial_index":111,"userId":"524d2272-d17f-42aa-b335-772a7ac10972","dateTime":"2021-11-13T00:03:53.639Z","isRelevant":false},{"internal_node_id":"0.0-0.0-9.0-0.0","rt":null,"response":null,"trial_type":"html-keyboard-response","stimulus":"<span class=\"dot blue\"></span><span class=\"dot ylw\"></span>","time_elapsed":113904,"trial_index":112,"userId":"524d2272-d17f-42aa-b335-772a7ac10972","dateTime":"2021-11-13T00:03:54.148Z","isRelevant":false},{"internal_node_id":"0.0-0.0-9.0-1.0","rt":625,"color":"blue","correct":true,"stimulus":"<div class=\"small blue\"><p>1</p></div><span class=\"dot blue\"></span><span class=\"dot ylw\"></span>","blockType":"single","time_elapsed":114531,"number":1,"taskType":"color","size":"small","response":"arrowleft","trial_type":"html-keyboard-response","trial_index":113,"userId":"524d2272-d17f-42aa-b335-772a7ac10972","dateTime":"2021-11-13T00:03:54.775Z","isRelevant":true},{"internal_node_id":"0.0-0.0-9.0-2.0","rt":null,"response":null,"trial_type":"html-keyboard-response","stimulus":"<div class=\"fix\">+</div><br/><span class=\"dot\">","time_elapsed":115035,"trial_index":114,"userId":"524d2272-d17f-42aa-b335-772a7ac10972","dateTime":"2021-11-13T00:03:55.280Z","isRelevant":false},{"internal_node_id":"0.0-0.0-9.0-0.1","rt":null,"response":null,"trial_type":"html-keyboard-response","stimulus":"<span class=\"dot blue\"></span><span class=\"dot ylw\"></span>","time_elapsed":115539,"trial_index":115,"userId":"524d2272-d17f-42aa-b335-772a7ac10972","dateTime":"2021-11-13T00:03:55.785Z","isRelevant":false},{"internal_node_id":"0.0-0.0-9.0-1.1","rt":643,"color":"blue","correct":true,"stimulus":"<div class=\"big blue\"><p>8</p></div><span class=\"dot blue\"></span><span class=\"dot ylw\"></span>","blockType":"single","time_elapsed":116187,"number":8,"taskType":"color","size":"big","response":"arrowleft","trial_type":"html-keyboard-response","trial_index":116,"userId":"524d2272-d17f-42aa-b335-772a7ac10972","dateTime":"2021-11-13T00:03:56.432Z","isRelevant":true},{"internal_node_id":"0.0-0.0-9.0-2.1","rt":null,"response":null,"trial_type":"html-keyboard-response","stimulus":"<div class=\"fix\">+</div><br/><span class=\"dot\">","time_elapsed":116690,"trial_index":117,"userId":"524d2272-d17f-42aa-b335-772a7ac10972","dateTime":"2021-11-13T00:03:56.935Z","isRelevant":false},{"internal_node_id":"0.0-0.0-9.0-0.2","rt":null,"response":null,"trial_type":"html-keyboard-response","stimulus":"<span class=\"dot blue\"></span><span class=\"dot ylw\"></span>","time_elapsed":117196,"trial_index":118,"userId":"524d2272-d17f-42aa-b335-772a7ac10972","dateTime":"2021-11-13T00:03:57.440Z","isRelevant":false},{"internal_node_id":"0.0-0.0-9.0-1.2","rt":574,"color":"ylw","correct":true,"stimulus":"<div class=\"small ylw\"><p>2</p></div><span class=\"dot blue\"></span><span class=\"dot ylw\"></span>","blockType":"single","time_elapsed":117771,"number":2,"taskType":"color","size":"small","response":"arrowright","trial_type":"html-keyboard-response","trial_index":119,"userId":"524d2272-d17f-42aa-b335-772a7ac10972","dateTime":"2021-11-13T00:03:58.016Z","isRelevant":true},{"internal_node_id":"0.0-0.0-9.0-2.2","rt":null,"response":null,"trial_type":"html-keyboard-response","stimulus":"<div class=\"fix\">+</div><br/><span class=\"dot\">","time_elapsed":118275,"trial_index":120,"userId":"524d2272-d17f-42aa-b335-772a7ac10972","dateTime":"2021-11-13T00:03:58.520Z","isRelevant":false},{"internal_node_id":"0.0-0.0-9.0-0.3","rt":null,"response":null,"trial_type":"html-keyboard-response","stimulus":"<span class=\"dot blue\"></span><span class=\"dot ylw\"></span>","time_elapsed":118778,"trial_index":121,"userId":"524d2272-d17f-42aa-b335-772a7ac10972","dateTime":"2021-11-13T00:03:59.022Z","isRelevant":false},{"internal_node_id":"0.0-0.0-9.0-1.3","rt":543,"color":"ylw","correct":true,"stimulus":"<div class=\"small ylw\"><p>2</p></div><span class=\"dot blue\"></span><span class=\"dot ylw\"></span>","blockType":"single","time_elapsed":119325,"number":2,"taskType":"color","size":"small","response":"arrowright","trial_type":"html-keyboard-response","trial_index":122,"userId":"524d2272-d17f-42aa-b335-772a7ac10972","dateTime":"2021-11-13T00:03:59.569Z","isRelevant":true},{"internal_node_id":"0.0-0.0-9.0-2.3","rt":null,"response":null,"trial_type":"html-keyboard-response","stimulus":"<div class=\"fix\">+</div><br/><span class=\"dot\">","time_elapsed":119829,"trial_index":123,"userId":"524d2272-d17f-42aa-b335-772a7ac10972","dateTime":"2021-11-13T00:04:00.073Z","isRelevant":false},{"internal_node_id":"0.0-0.0-9.0-0.4","rt":null,"response":null,"trial_type":"html-keyboard-response","stimulus":"<span class=\"dot blue\"></span><span class=\"dot ylw\"></span>","time_elapsed":120334,"trial_index":124,"userId":"524d2272-d17f-42aa-b335-772a7ac10972","dateTime":"2021-11-13T00:04:00.578Z","isRelevant":false},{"internal_node_id":"0.0-0.0-9.0-1.4","rt":596,"color":"blue","correct":true,"stimulus":"<div class=\"small blue\"><p>4</p></div><span class=\"dot blue\"></span><span class=\"dot ylw\"></span>","blockType":"single","time_elapsed":120932,"number":4,"taskType":"color","size":"small","response":"arrowleft","trial_type":"html-keyboard-response","trial_index":125,"userId":"524d2272-d17f-42aa-b335-772a7ac10972","dateTime":"2021-11-13T00:04:01.176Z","isRelevant":true},{"internal_node_id":"0.0-0.0-9.0-2.4","rt":null,"response":null,"trial_type":"html-keyboard-response","stimulus":"<div class=\"fix\">+</div><br/><span class=\"dot\">","time_elapsed":121437,"trial_index":126,"userId":"524d2272-d17f-42aa-b335-772a7ac10972","dateTime":"2021-11-13T00:04:01.681Z","isRelevant":false},{"internal_node_id":"0.0-0.0-9.0-0.5","rt":null,"response":null,"trial_type":"html-keyboard-response","stimulus":"<span class=\"dot blue\"></span><span class=\"dot ylw\"></span>","time_elapsed":121939,"trial_index":127,"userId":"524d2272-d17f-42aa-b335-772a7ac10972","dateTime":"2021-11-13T00:04:02.184Z","isRelevant":false},{"internal_node_id":"0.0-0.0-9.0-1.5","rt":703,"color":"blue","correct":true,"stimulus":"<div class=\"big blue\"><p>6</p></div><span class=\"dot blue\"></span><span class=\"dot ylw\"></span>","blockType":"single","time_elapsed":122645,"number":6,"taskType":"color","size":"big","response":"arrowleft","trial_type":"html-keyboard-response","trial_index":128,"userId":"524d2272-d17f-42aa-b335-772a7ac10972","dateTime":"2021-11-13T00:04:02.889Z","isRelevant":true},{"internal_node_id":"0.0-0.0-9.0-2.5","rt":null,"response":null,"trial_type":"html-keyboard-response","stimulus":"<div class=\"fix\">+</div><br/><span class=\"dot\">","time_elapsed":123147,"trial_index":129,"userId":"524d2272-d17f-42aa-b335-772a7ac10972","dateTime":"2021-11-13T00:04:03.391Z","isRelevant":false},{"internal_node_id":"0.0-0.0-9.0-0.6","rt":null,"response":null,"trial_type":"html-keyboard-response","stimulus":"<span class=\"dot blue\"></span><span class=\"dot ylw\"></span>","time_elapsed":123650,"trial_index":130,"userId":"524d2272-d17f-42aa-b335-772a7ac10972","dateTime":"2021-11-13T00:04:03.894Z","isRelevant":false},{"internal_node_id":"0.0-0.0-9.0-1.6","rt":535,"color":"blue","correct":true,"stimulus":"<div class=\"big blue\"><p>7</p></div><span class=\"dot blue\"></span><span class=\"dot ylw\"></span>","blockType":"single","time_elapsed":124188,"number":7,"taskType":"color","size":"big","response":"arrowleft","trial_type":"html-keyboard-response","trial_index":131,"userId":"524d2272-d17f-42aa-b335-772a7ac10972","dateTime":"2021-11-13T00:04:04.434Z","isRelevant":true},{"internal_node_id":"0.0-0.0-9.0-2.6","rt":null,"response":null,"trial_type":"html-keyboard-response","stimulus":"<div class=\"fix\">+</div><br/><span class=\"dot\">","time_elapsed":124691,"trial_index":132,"userId":"524d2272-d17f-42aa-b335-772a7ac10972","dateTime":"2021-11-13T00:04:04.936Z","isRelevant":false},{"internal_node_id":"0.0-0.0-9.0-0.7","rt":null,"response":null,"trial_type":"html-keyboard-response","stimulus":"<span class=\"dot blue\"></span><span class=\"dot ylw\"></span>","time_elapsed":125197,"trial_index":133,"userId":"524d2272-d17f-42aa-b335-772a7ac10972","dateTime":"2021-11-13T00:04:05.441Z","isRelevant":false},{"internal_node_id":"0.0-0.0-9.0-1.7","rt":574,"color":"ylw","correct":true,"stimulus":"<div class=\"big ylw\"><p>9</p></div><span class=\"dot blue\"></span><span class=\"dot ylw\"></span>","blockType":"single","time_elapsed":125774,"number":9,"taskType":"color","size":"big","response":"arrowright","trial_type":"html-keyboard-response","trial_index":134,"userId":"524d2272-d17f-42aa-b335-772a7ac10972","dateTime":"2021-11-13T00:04:06.018Z","isRelevant":true},{"internal_node_id":"0.0-0.0-9.0-2.7","rt":null,"response":null,"trial_type":"html-keyboard-response","stimulus":"<div class=\"fix\">+</div><br/><span class=\"dot\">","time_elapsed":126279,"trial_index":135,"userId":"524d2272-d17f-42aa-b335-772a7ac10972","dateTime":"2021-11-13T00:04:06.524Z","isRelevant":false},{"internal_node_id":"0.0-0.0-9.0-0.8","rt":null,"response":null,"trial_type":"html-keyboard-response","stimulus":"<span class=\"dot blue\"></span><span class=\"dot ylw\"></span>","time_elapsed":126785,"trial_index":136,"userId":"524d2272-d17f-42aa-b335-772a7ac10972","dateTime":"2021-11-13T00:04:07.029Z","isRelevant":false},{"internal_node_id":"0.0-0.0-9.0-1.8","rt":676,"color":"ylw","correct":true,"stimulus":"<div class=\"small ylw\"><p>2</p></div><span class=\"dot blue\"></span><span class=\"dot ylw\"></span>","blockType":"single","time_elapsed":127462,"number":2,"taskType":"color","size":"small","response":"arrowright","trial_type":"html-keyboard-response","trial_index":137,"userId":"524d2272-d17f-42aa-b335-772a7ac10972","dateTime":"2021-11-13T00:04:07.706Z","isRelevant":true},{"internal_node_id":"0.0-0.0-9.0-2.8","rt":null,"response":null,"trial_type":"html-keyboard-response","stimulus":"<div class=\"fix\">+</div><br/><span class=\"dot\">","time_elapsed":127964,"trial_index":138,"userId":"524d2272-d17f-42aa-b335-772a7ac10972","dateTime":"2021-11-13T00:04:08.208Z","isRelevant":false},{"internal_node_id":"0.0-0.0-9.0-0.9","rt":null,"response":null,"trial_type":"html-keyboard-response","stimulus":"<span class=\"dot blue\"></span><span class=\"dot ylw\"></span>","time_elapsed":128471,"trial_index":139,"userId":"524d2272-d17f-42aa-b335-772a7ac10972","dateTime":"2021-11-13T00:04:08.715Z","isRelevant":false},{"internal_node_id":"0.0-0.0-9.0-1.9","rt":579,"color":"blue","correct":true,"stimulus":"<div class=\"small blue\"><p>6</p></div><span class=\"dot blue\"></span><span class=\"dot ylw\"></span>","blockType":"single","time_elapsed":129054,"number":6,"taskType":"color","size":"small","response":"arrowleft","trial_type":"html-keyboard-response","trial_index":140,"userId":"524d2272-d17f-42aa-b335-772a7ac10972","dateTime":"2021-11-13T00:04:09.298Z","isRelevant":true},{"internal_node_id":"0.0-0.0-9.0-2.9","rt":null,"response":null,"trial_type":"html-keyboard-response","stimulus":"<div class=\"fix\">+</div><br/><span class=\"dot\">","time_elapsed":129556,"trial_index":141,"userId":"524d2272-d17f-42aa-b335-772a7ac10972","dateTime":"2021-11-13T00:04:09.801Z","isRelevant":false},{"internal_node_id":"0.0-0.0-9.0-0.10","rt":null,"response":null,"trial_type":"html-keyboard-response","stimulus":"<span class=\"dot blue\"></span><span class=\"dot ylw\"></span>","time_elapsed":130059,"trial_index":142,"userId":"524d2272-d17f-42aa-b335-772a7ac10972","dateTime":"2021-11-13T00:04:10.303Z","isRelevant":false},{"internal_node_id":"0.0-0.0-9.0-1.10","rt":528,"color":"blue","correct":true,"stimulus":"<div class=\"small blue\"><p>1</p></div><span class=\"dot blue\"></span><span class=\"dot ylw\"></span>","blockType":"single","time_elapsed":130590,"number":1,"taskType":"color","size":"small","response":"arrowleft","trial_type":"html-keyboard-response","trial_index":143,"userId":"524d2272-d17f-42aa-b335-772a7ac10972","dateTime":"2021-11-13T00:04:10.834Z","isRelevant":true},{"internal_node_id":"0.0-0.0-9.0-2.10","rt":null,"response":null,"trial_type":"html-keyboard-response","stimulus":"<div class=\"fix\">+</div><br/><span class=\"dot\">","time_elapsed":131092,"trial_index":144,"userId":"524d2272-d17f-42aa-b335-772a7ac10972","dateTime":"2021-11-13T00:04:11.336Z","isRelevant":false},{"internal_node_id":"0.0-0.0-9.0-0.11","rt":null,"response":null,"trial_type":"html-keyboard-response","stimulus":"<span class=\"dot blue\"></span><span class=\"dot ylw\"></span>","time_elapsed":131594,"trial_index":145,"userId":"524d2272-d17f-42aa-b335-772a7ac10972","dateTime":"2021-11-13T00:04:11.838Z","isRelevant":false},{"internal_node_id":"0.0-0.0-9.0-1.11","rt":482,"color":"blue","correct":true,"stimulus":"<div class=\"small blue\"><p>7</p></div><span class=\"dot blue\"></span><span class=\"dot ylw\"></span>","blockType":"single","time_elapsed":132078,"number":7,"taskType":"color","size":"small","response":"arrowleft","trial_type":"html-keyboard-response","trial_index":146,"userId":"524d2272-d17f-42aa-b335-772a7ac10972","dateTime":"2021-11-13T00:04:12.323Z","isRelevant":true},{"internal_node_id":"0.0-0.0-9.0-2.11","rt":null,"response":null,"trial_type":"html-keyboard-response","stimulus":"<div class=\"fix\">+</div><br/><span class=\"dot\">","time_elapsed":132582,"trial_index":147,"userId":"524d2272-d17f-42aa-b335-772a7ac10972","dateTime":"2021-11-13T00:04:12.826Z","isRelevant":false},{"internal_node_id":"0.0-0.0-9.0-0.12","rt":null,"response":null,"trial_type":"html-keyboard-response","stimulus":"<span class=\"dot blue\"></span><span class=\"dot ylw\"></span>","time_elapsed":133088,"trial_index":148,"userId":"524d2272-d17f-42aa-b335-772a7ac10972","dateTime":"2021-11-13T00:04:13.333Z","isRelevant":false},{"internal_node_id":"0.0-0.0-9.0-1.12","rt":490,"color":"blue","correct":true,"stimulus":"<div class=\"small blue\"><p>3</p></div><span class=\"dot blue\"></span><span class=\"dot ylw\"></span>","blockType":"single","time_elapsed":133582,"number":3,"taskType":"color","size":"small","response":"arrowleft","trial_type":"html-keyboard-response","trial_index":149,"userId":"524d2272-d17f-42aa-b335-772a7ac10972","dateTime":"2021-11-13T00:04:13.826Z","isRelevant":true},{"internal_node_id":"0.0-0.0-9.0-2.12","rt":null,"response":null,"trial_type":"html-keyboard-response","stimulus":"<div class=\"fix\">+</div><br/><span class=\"dot\">","time_elapsed":134088,"trial_index":150,"userId":"524d2272-d17f-42aa-b335-772a7ac10972","dateTime":"2021-11-13T00:04:14.333Z","isRelevant":false},{"internal_node_id":"0.0-0.0-9.0-0.13","rt":null,"response":null,"trial_type":"html-keyboard-response","stimulus":"<span class=\"dot blue\"></span><span class=\"dot ylw\"></span>","time_elapsed":134590,"trial_index":151,"userId":"524d2272-d17f-42aa-b335-772a7ac10972","dateTime":"2021-11-13T00:04:14.834Z","isRelevant":false},{"internal_node_id":"0.0-0.0-9.0-1.13","rt":558,"color":"ylw","correct":true,"stimulus":"<div class=\"small ylw\"><p>2</p></div><span class=\"dot blue\"></span><span class=\"dot ylw\"></span>","blockType":"single","time_elapsed":135150,"number":2,"taskType":"color","size":"small","response":"arrowright","trial_type":"html-keyboard-response","trial_index":152,"userId":"524d2272-d17f-42aa-b335-772a7ac10972","dateTime":"2021-11-13T00:04:15.395Z","isRelevant":true},{"internal_node_id":"0.0-0.0-9.0-2.13","rt":null,"response":null,"trial_type":"html-keyboard-response","stimulus":"<div class=\"fix\">+</div><br/><span class=\"dot\">","time_elapsed":135656,"trial_index":153,"userId":"524d2272-d17f-42aa-b335-772a7ac10972","dateTime":"2021-11-13T00:04:15.900Z","isRelevant":false},{"internal_node_id":"0.0-0.0-9.0-0.14","rt":null,"response":null,"trial_type":"html-keyboard-response","stimulus":"<span class=\"dot blue\"></span><span class=\"dot ylw\"></span>","time_elapsed":136158,"trial_index":154,"userId":"524d2272-d17f-42aa-b335-772a7ac10972","dateTime":"2021-11-13T00:04:16.403Z","isRelevant":false},{"internal_node_id":"0.0-0.0-9.0-1.14","rt":724,"color":"ylw","correct":true,"stimulus":"<div class=\"small ylw\"><p>1</p></div><span class=\"dot blue\"></span><span class=\"dot ylw\"></span>","blockType":"single","time_elapsed":136887,"number":1,"taskType":"color","size":"small","response":"arrowright","trial_type":"html-keyboard-response","trial_index":155,"userId":"524d2272-d17f-42aa-b335-772a7ac10972","dateTime":"2021-11-13T00:04:17.131Z","isRelevant":true},{"internal_node_id":"0.0-0.0-9.0-2.14","rt":null,"response":null,"trial_type":"html-keyboard-response","stimulus":"<div class=\"fix\">+</div><br/><span class=\"dot\">","time_elapsed":137391,"trial_index":156,"userId":"524d2272-d17f-42aa-b335-772a7ac10972","dateTime":"2021-11-13T00:04:17.635Z","isRelevant":false},{"internal_node_id":"0.0-0.0-9.0-0.15","rt":null,"response":null,"trial_type":"html-keyboard-response","stimulus":"<span class=\"dot blue\"></span><span class=\"dot ylw\"></span>","time_elapsed":137893,"trial_index":157,"userId":"524d2272-d17f-42aa-b335-772a7ac10972","dateTime":"2021-11-13T00:04:18.138Z","isRelevant":false},{"internal_node_id":"0.0-0.0-9.0-1.15","rt":606,"color":"ylw","correct":true,"stimulus":"<div class=\"big ylw\"><p>2</p></div><span class=\"dot blue\"></span><span class=\"dot ylw\"></span>","blockType":"single","time_elapsed":138503,"number":2,"taskType":"color","size":"big","response":"arrowright","trial_type":"html-keyboard-response","trial_index":158,"userId":"524d2272-d17f-42aa-b335-772a7ac10972","dateTime":"2021-11-13T00:04:18.747Z","isRelevant":true},{"internal_node_id":"0.0-0.0-9.0-2.15","rt":null,"response":null,"trial_type":"html-keyboard-response","stimulus":"<div class=\"fix\">+</div><br/><span class=\"dot\">","time_elapsed":139009,"trial_index":159,"userId":"524d2272-d17f-42aa-b335-772a7ac10972","dateTime":"2021-11-13T00:04:19.253Z","isRelevant":false},{"internal_node_id":"0.0-0.0-9.0-0.16","rt":null,"response":null,"trial_type":"html-keyboard-response","stimulus":"<span class=\"dot blue\"></span><span class=\"dot ylw\"></span>","time_elapsed":139510,"trial_index":160,"userId":"524d2272-d17f-42aa-b335-772a7ac10972","dateTime":"2021-11-13T00:04:19.755Z","isRelevant":false},{"internal_node_id":"0.0-0.0-9.0-1.16","rt":494,"color":"ylw","correct":true,"stimulus":"<div class=\"small ylw\"><p>7</p></div><span class=\"dot blue\"></span><span class=\"dot ylw\"></span>","blockType":"single","time_elapsed":140007,"number":7,"taskType":"color","size":"small","response":"arrowright","trial_type":"html-keyboard-response","trial_index":161,"userId":"524d2272-d17f-42aa-b335-772a7ac10972","dateTime":"2021-11-13T00:04:20.252Z","isRelevant":true},{"internal_node_id":"0.0-0.0-9.0-2.16","rt":null,"response":null,"trial_type":"html-keyboard-response","stimulus":"<div class=\"fix\">+</div><br/><span class=\"dot\">","time_elapsed":140512,"trial_index":162,"userId":"524d2272-d17f-42aa-b335-772a7ac10972","dateTime":"2021-11-13T00:04:20.757Z","isRelevant":false},{"internal_node_id":"0.0-0.0-9.0-0.17","rt":null,"response":null,"trial_type":"html-keyboard-response","stimulus":"<span class=\"dot blue\"></span><span class=\"dot ylw\"></span>","time_elapsed":141014,"trial_index":163,"userId":"524d2272-d17f-42aa-b335-772a7ac10972","dateTime":"2021-11-13T00:04:21.258Z","isRelevant":false},{"internal_node_id":"0.0-0.0-9.0-1.17","rt":510,"color":"blue","correct":true,"stimulus":"<div class=\"big blue\"><p>2</p></div><span class=\"dot blue\"></span><span class=\"dot ylw\"></span>","blockType":"single","time_elapsed":141527,"number":2,"taskType":"color","size":"big","response":"arrowleft","trial_type":"html-keyboard-response","trial_index":164,"userId":"524d2272-d17f-42aa-b335-772a7ac10972","dateTime":"2021-11-13T00:04:21.771Z","isRelevant":true},{"internal_node_id":"0.0-0.0-9.0-2.17","rt":null,"response":null,"trial_type":"html-keyboard-response","stimulus":"<div class=\"fix\">+</div><br/><span class=\"dot\">","time_elapsed":142030,"trial_index":165,"userId":"524d2272-d17f-42aa-b335-772a7ac10972","dateTime":"2021-11-13T00:04:22.274Z","isRelevant":false},{"internal_node_id":"0.0-0.0-9.0-0.18","rt":null,"response":null,"trial_type":"html-keyboard-response","stimulus":"<span class=\"dot blue\"></span><span class=\"dot ylw\"></span>","time_elapsed":142533,"trial_index":166,"userId":"524d2272-d17f-42aa-b335-772a7ac10972","dateTime":"2021-11-13T00:04:22.777Z","isRelevant":false},{"internal_node_id":"0.0-0.0-9.0-1.18","rt":648,"color":"ylw","correct":true,"stimulus":"<div class=\"big ylw\"><p>1</p></div><span class=\"dot blue\"></span><span class=\"dot ylw\"></span>","blockType":"single","time_elapsed":143183,"number":1,"taskType":"color","size":"big","response":"arrowright","trial_type":"html-keyboard-response","trial_index":167,"userId":"524d2272-d17f-42aa-b335-772a7ac10972","dateTime":"2021-11-13T00:04:23.427Z","isRelevant":true},{"internal_node_id":"0.0-0.0-9.0-2.18","rt":null,"response":null,"trial_type":"html-keyboard-response","stimulus":"<div class=\"fix\">+</div><br/><span class=\"dot\">","time_elapsed":143688,"trial_index":168,"userId":"524d2272-d17f-42aa-b335-772a7ac10972","dateTime":"2021-11-13T00:04:23.932Z","isRelevant":false},{"internal_node_id":"0.0-0.0-9.0-0.19","rt":null,"response":null,"trial_type":"html-keyboard-response","stimulus":"<span class=\"dot blue\"></span><span class=\"dot ylw\"></span>","time_elapsed":144190,"trial_index":169,"userId":"524d2272-d17f-42aa-b335-772a7ac10972","dateTime":"2021-11-13T00:04:24.434Z","isRelevant":false},{"internal_node_id":"0.0-0.0-9.0-1.19","rt":597,"color":"blue","correct":true,"stimulus":"<div class=\"small blue\"><p>7</p></div><span class=\"dot blue\"></span><span class=\"dot ylw\"></span>","blockType":"single","time_elapsed":144791,"number":7,"taskType":"color","size":"small","response":"arrowleft","trial_type":"html-keyboard-response","trial_index":170,"userId":"524d2272-d17f-42aa-b335-772a7ac10972","dateTime":"2021-11-13T00:04:25.035Z","isRelevant":true},{"internal_node_id":"0.0-0.0-9.0-2.19","rt":null,"response":null,"trial_type":"html-keyboard-response","stimulus":"<div class=\"fix\">+</div><br/><span class=\"dot\">","time_elapsed":145293,"trial_index":171,"userId":"524d2272-d17f-42aa-b335-772a7ac10972","dateTime":"2021-11-13T00:04:25.538Z","isRelevant":false},{"internal_node_id":"0.0-0.0-9.0-0.20","rt":null,"response":null,"trial_type":"html-keyboard-response","stimulus":"<span class=\"dot blue\"></span><span class=\"dot ylw\"></span>","time_elapsed":145798,"trial_index":172,"userId":"524d2272-d17f-42aa-b335-772a7ac10972","dateTime":"2021-11-13T00:04:26.042Z","isRelevant":false},{"internal_node_id":"0.0-0.0-9.0-1.20","rt":519,"color":"ylw","correct":true,"stimulus":"<div class=\"small ylw\"><p>9</p></div><span class=\"dot blue\"></span><span class=\"dot ylw\"></span>","blockType":"single","time_elapsed":146319,"number":9,"taskType":"color","size":"small","response":"arrowright","trial_type":"html-keyboard-response","trial_index":173,"userId":"524d2272-d17f-42aa-b335-772a7ac10972","dateTime":"2021-11-13T00:04:26.564Z","isRelevant":true},{"internal_node_id":"0.0-0.0-9.0-2.20","rt":null,"response":null,"trial_type":"html-keyboard-response","stimulus":"<div class=\"fix\">+</div><br/><span class=\"dot\">","time_elapsed":146823,"trial_index":174,"userId":"524d2272-d17f-42aa-b335-772a7ac10972","dateTime":"2021-11-13T00:04:27.068Z","isRelevant":false},{"internal_node_id":"0.0-0.0-9.0-0.21","rt":null,"response":null,"trial_type":"html-keyboard-response","stimulus":"<span class=\"dot blue\"></span><span class=\"dot ylw\"></span>","time_elapsed":147328,"trial_index":175,"userId":"524d2272-d17f-42aa-b335-772a7ac10972","dateTime":"2021-11-13T00:04:27.572Z","isRelevant":false},{"internal_node_id":"0.0-0.0-9.0-1.21","rt":510,"color":"ylw","correct":true,"stimulus":"<div class=\"small ylw\"><p>8</p></div><span class=\"dot blue\"></span><span class=\"dot ylw\"></span>","blockType":"single","time_elapsed":147840,"number":8,"taskType":"color","size":"small","response":"arrowright","trial_type":"html-keyboard-response","trial_index":176,"userId":"524d2272-d17f-42aa-b335-772a7ac10972","dateTime":"2021-11-13T00:04:28.084Z","isRelevant":true},{"internal_node_id":"0.0-0.0-9.0-2.21","rt":null,"response":null,"trial_type":"html-keyboard-response","stimulus":"<div class=\"fix\">+</div><br/><span class=\"dot\">","time_elapsed":148341,"trial_index":177,"userId":"524d2272-d17f-42aa-b335-772a7ac10972","dateTime":"2021-11-13T00:04:28.586Z","isRelevant":false},{"internal_node_id":"0.0-0.0-9.0-0.22","rt":null,"response":null,"trial_type":"html-keyboard-response","stimulus":"<span class=\"dot blue\"></span><span class=\"dot ylw\"></span>","time_elapsed":148848,"trial_index":178,"userId":"524d2272-d17f-42aa-b335-772a7ac10972","dateTime":"2021-11-13T00:04:29.093Z","isRelevant":false},{"internal_node_id":"0.0-0.0-9.0-1.22","rt":475,"color":"ylw","correct":true,"stimulus":"<div class=\"big ylw\"><p>4</p></div><span class=\"dot blue\"></span><span class=\"dot ylw\"></span>","blockType":"single","time_elapsed":149328,"number":4,"taskType":"color","size":"big","response":"arrowright","trial_type":"html-keyboard-response","trial_index":179,"userId":"524d2272-d17f-42aa-b335-772a7ac10972","dateTime":"2021-11-13T00:04:29.572Z","isRelevant":true},{"internal_node_id":"0.0-0.0-9.0-2.22","rt":null,"response":null,"trial_type":"html-keyboard-response","stimulus":"<div class=\"fix\">+</div><br/><span class=\"dot\">","time_elapsed":149832,"trial_index":180,"userId":"524d2272-d17f-42aa-b335-772a7ac10972","dateTime":"2021-11-13T00:04:30.076Z","isRelevant":false},{"internal_node_id":"0.0-0.0-9.0-0.23","rt":null,"response":null,"trial_type":"html-keyboard-response","stimulus":"<span class=\"dot blue\"></span><span class=\"dot ylw\"></span>","time_elapsed":150334,"trial_index":181,"userId":"524d2272-d17f-42aa-b335-772a7ac10972","dateTime":"2021-11-13T00:04:30.579Z","isRelevant":false},{"internal_node_id":"0.0-0.0-9.0-1.23","rt":472,"color":"ylw","correct":true,"stimulus":"<div class=\"small ylw\"><p>4</p></div><span class=\"dot blue\"></span><span class=\"dot ylw\"></span>","blockType":"single","time_elapsed":150807,"number":4,"taskType":"color","size":"small","response":"arrowright","trial_type":"html-keyboard-response","trial_index":182,"userId":"524d2272-d17f-42aa-b335-772a7ac10972","dateTime":"2021-11-13T00:04:31.051Z","isRelevant":true},{"internal_node_id":"0.0-0.0-9.0-2.23","rt":null,"response":null,"trial_type":"html-keyboard-response","stimulus":"<div class=\"fix\">+</div><br/><span class=\"dot\">","time_elapsed":151310,"trial_index":183,"userId":"524d2272-d17f-42aa-b335-772a7ac10972","dateTime":"2021-11-13T00:04:31.554Z","isRelevant":false},{"internal_node_id":"0.0-0.0-9.0-0.24","rt":null,"response":null,"trial_type":"html-keyboard-response","stimulus":"<span class=\"dot blue\"></span><span class=\"dot ylw\"></span>","time_elapsed":151811,"trial_index":184,"userId":"524d2272-d17f-42aa-b335-772a7ac10972","dateTime":"2021-11-13T00:04:32.056Z","isRelevant":false},{"internal_node_id":"0.0-0.0-9.0-1.24","rt":497,"color":"blue","correct":true,"stimulus":"<div class=\"small blue\"><p>1</p></div><span class=\"dot blue\"></span><span class=\"dot ylw\"></span>","blockType":"single","time_elapsed":152312,"number":1,"taskType":"color","size":"small","response":"arrowleft","trial_type":"html-keyboard-response","trial_index":185,"userId":"524d2272-d17f-42aa-b335-772a7ac10972","dateTime":"2021-11-13T00:04:32.557Z","isRelevant":true},{"internal_node_id":"0.0-0.0-9.0-2.24","rt":null,"response":null,"trial_type":"html-keyboard-response","stimulus":"<div class=\"fix\">+</div><br/><span class=\"dot\">","time_elapsed":152821,"trial_index":186,"userId":"524d2272-d17f-42aa-b335-772a7ac10972","dateTime":"2021-11-13T00:04:33.065Z","isRelevant":false},{"internal_node_id":"0.0-0.0-9.0-0.25","rt":null,"response":null,"trial_type":"html-keyboard-response","stimulus":"<span class=\"dot blue\"></span><span class=\"dot ylw\"></span>","time_elapsed":153324,"trial_index":187,"userId":"524d2272-d17f-42aa-b335-772a7ac10972","dateTime":"2021-11-13T00:04:33.569Z","isRelevant":false},{"internal_node_id":"0.0-0.0-9.0-1.25","rt":561,"color":"blue","correct":true,"stimulus":"<div class=\"big blue\"><p>6</p></div><span class=\"dot blue\"></span><span class=\"dot ylw\"></span>","blockType":"single","time_elapsed":153888,"number":6,"taskType":"color","size":"big","response":"arrowleft","trial_type":"html-keyboard-response","trial_index":188,"userId":"524d2272-d17f-42aa-b335-772a7ac10972","dateTime":"2021-11-13T00:04:34.132Z","isRelevant":true},{"internal_node_id":"0.0-0.0-9.0-2.25","rt":null,"response":null,"trial_type":"html-keyboard-response","stimulus":"<div class=\"fix\">+</div><br/><span class=\"dot\">","time_elapsed":154390,"trial_index":189,"userId":"524d2272-d17f-42aa-b335-772a7ac10972","dateTime":"2021-11-13T00:04:34.634Z","isRelevant":false},{"internal_node_id":"0.0-0.0-9.0-0.26","rt":null,"response":null,"trial_type":"html-keyboard-response","stimulus":"<span class=\"dot blue\"></span><span class=\"dot ylw\"></span>","time_elapsed":154894,"trial_index":190,"userId":"524d2272-d17f-42aa-b335-772a7ac10972","dateTime":"2021-11-13T00:04:35.138Z","isRelevant":false},{"internal_node_id":"0.0-0.0-9.0-1.26","rt":567,"color":"blue","correct":true,"stimulus":"<div class=\"big blue\"><p>9</p></div><span class=\"dot blue\"></span><span class=\"dot ylw\"></span>","blockType":"single","time_elapsed":155464,"number":9,"taskType":"color","size":"big","response":"arrowleft","trial_type":"html-keyboard-response","trial_index":191,"userId":"524d2272-d17f-42aa-b335-772a7ac10972","dateTime":"2021-11-13T00:04:35.708Z","isRelevant":true},{"internal_node_id":"0.0-0.0-9.0-2.26","rt":null,"response":null,"trial_type":"html-keyboard-response","stimulus":"<div class=\"fix\">+</div><br/><span class=\"dot\">","time_elapsed":155966,"trial_index":192,"userId":"524d2272-d17f-42aa-b335-772a7ac10972","dateTime":"2021-11-13T00:04:36.210Z","isRelevant":false},{"internal_node_id":"0.0-0.0-9.0-0.27","rt":null,"response":null,"trial_type":"html-keyboard-response","stimulus":"<span class=\"dot blue\"></span><span class=\"dot ylw\"></span>","time_elapsed":156468,"trial_index":193,"userId":"524d2272-d17f-42aa-b335-772a7ac10972","dateTime":"2021-11-13T00:04:36.713Z","isRelevant":false},{"internal_node_id":"0.0-0.0-9.0-1.27","rt":503,"color":"blue","correct":true,"stimulus":"<div class=\"big blue\"><p>7</p></div><span class=\"dot blue\"></span><span class=\"dot ylw\"></span>","blockType":"single","time_elapsed":156976,"number":7,"taskType":"color","size":"big","response":"arrowleft","trial_type":"html-keyboard-response","trial_index":194,"userId":"524d2272-d17f-42aa-b335-772a7ac10972","dateTime":"2021-11-13T00:04:37.220Z","isRelevant":true},{"internal_node_id":"0.0-0.0-9.0-2.27","rt":null,"response":null,"trial_type":"html-keyboard-response","stimulus":"<div class=\"fix\">+</div><br/><span class=\"dot\">","time_elapsed":157481,"trial_index":195,"userId":"524d2272-d17f-42aa-b335-772a7ac10972","dateTime":"2021-11-13T00:04:37.726Z","isRelevant":false},{"internal_node_id":"0.0-0.0-9.0-0.28","rt":null,"response":null,"trial_type":"html-keyboard-response","stimulus":"<span class=\"dot blue\"></span><span class=\"dot ylw\"></span>","time_elapsed":157986,"trial_index":196,"userId":"524d2272-d17f-42aa-b335-772a7ac10972","dateTime":"2021-11-13T00:04:38.230Z","isRelevant":false},{"internal_node_id":"0.0-0.0-9.0-1.28","rt":547,"color":"ylw","correct":true,"stimulus":"<div class=\"big ylw\"><p>3</p></div><span class=\"dot blue\"></span><span class=\"dot ylw\"></span>","blockType":"single","time_elapsed":158536,"number":3,"taskType":"color","size":"big","response":"arrowright","trial_type":"html-keyboard-response","trial_index":197,"userId":"524d2272-d17f-42aa-b335-772a7ac10972","dateTime":"2021-11-13T00:04:38.780Z","isRelevant":true},{"internal_node_id":"0.0-0.0-9.0-2.28","rt":null,"response":null,"trial_type":"html-keyboard-response","stimulus":"<div class=\"fix\">+</div><br/><span class=\"dot\">","time_elapsed":159040,"trial_index":198,"userId":"524d2272-d17f-42aa-b335-772a7ac10972","dateTime":"2021-11-13T00:04:39.284Z","isRelevant":false},{"internal_node_id":"0.0-0.0-9.0-0.29","rt":null,"response":null,"trial_type":"html-keyboard-response","stimulus":"<span class=\"dot blue\"></span><span class=\"dot ylw\"></span>","time_elapsed":159541,"trial_index":199,"userId":"524d2272-d17f-42aa-b335-772a7ac10972","dateTime":"2021-11-13T00:04:39.786Z","isRelevant":false},{"internal_node_id":"0.0-0.0-9.0-1.29","rt":529,"color":"blue","correct":true,"stimulus":"<div class=\"small blue\"><p>2</p></div><span class=\"dot blue\"></span><span class=\"dot ylw\"></span>","blockType":"single","time_elapsed":160072,"number":2,"taskType":"color","size":"small","response":"arrowleft","trial_type":"html-keyboard-response","trial_index":200,"userId":"524d2272-d17f-42aa-b335-772a7ac10972","dateTime":"2021-11-13T00:04:40.316Z","isRelevant":true},{"internal_node_id":"0.0-0.0-9.0-2.29","rt":null,"response":null,"trial_type":"html-keyboard-response","stimulus":"<div class=\"fix\">+</div><br/><span class=\"dot\">","time_elapsed":160575,"trial_index":201,"userId":"524d2272-d17f-42aa-b335-772a7ac10972","dateTime":"2021-11-13T00:04:40.820Z","isRelevant":false},{"internal_node_id":"0.0-0.0-9.0-0.30","rt":null,"response":null,"trial_type":"html-keyboard-response","stimulus":"<span class=\"dot blue\"></span><span class=\"dot ylw\"></span>","time_elapsed":161080,"trial_index":202,"userId":"524d2272-d17f-42aa-b335-772a7ac10972","dateTime":"2021-11-13T00:04:41.325Z","isRelevant":false},{"internal_node_id":"0.0-0.0-9.0-1.30","rt":597,"color":"blue","correct":true,"stimulus":"<div class=\"small blue\"><p>3</p></div><span class=\"dot blue\"></span><span class=\"dot ylw\"></span>","blockType":"single","time_elapsed":161680,"number":3,"taskType":"color","size":"small","response":"arrowleft","trial_type":"html-keyboard-response","trial_index":203,"userId":"524d2272-d17f-42aa-b335-772a7ac10972","dateTime":"2021-11-13T00:04:41.924Z","isRelevant":true},{"internal_node_id":"0.0-0.0-9.0-2.30","rt":null,"response":null,"trial_type":"html-keyboard-response","stimulus":"<div class=\"fix\">+</div><br/><span class=\"dot\">","time_elapsed":162183,"trial_index":204,"userId":"524d2272-d17f-42aa-b335-772a7ac10972","dateTime":"2021-11-13T00:04:42.427Z","isRelevant":false},{"internal_node_id":"0.0-0.0-9.0-0.31","rt":null,"response":null,"trial_type":"html-keyboard-response","stimulus":"<span class=\"dot blue\"></span><span class=\"dot ylw\"></span>","time_elapsed":162688,"trial_index":205,"userId":"524d2272-d17f-42aa-b335-772a7ac10972","dateTime":"2021-11-13T00:04:42.932Z","isRelevant":false},{"internal_node_id":"0.0-0.0-9.0-1.31","rt":493,"color":"blue","correct":true,"stimulus":"<div class=\"big blue\"><p>3</p></div><span class=\"dot blue\"></span><span class=\"dot ylw\"></span>","blockType":"single","time_elapsed":163184,"number":3,"taskType":"color","size":"big","response":"arrowleft","trial_type":"html-keyboard-response","trial_index":206,"userId":"524d2272-d17f-42aa-b335-772a7ac10972","dateTime":"2021-11-13T00:04:43.428Z","isRelevant":true},{"internal_node_id":"0.0-0.0-9.0-2.31","rt":null,"response":null,"trial_type":"html-keyboard-response","stimulus":"<div class=\"fix\">+</div><br/><span class=\"dot\">","time_elapsed":163687,"trial_index":207,"userId":"524d2272-d17f-42aa-b335-772a7ac10972","dateTime":"2021-11-13T00:04:43.931Z","isRelevant":false},{"internal_node_id":"0.0-0.0-9.0-0.32","rt":null,"response":null,"trial_type":"html-keyboard-response","stimulus":"<span class=\"dot blue\"></span><span class=\"dot ylw\"></span>","time_elapsed":164189,"trial_index":208,"userId":"524d2272-d17f-42aa-b335-772a7ac10972","dateTime":"2021-11-13T00:04:44.433Z","isRelevant":false},{"internal_node_id":"0.0-0.0-9.0-1.32","rt":458,"color":"blue","correct":true,"stimulus":"<div class=\"small blue\"><p>3</p></div><span class=\"dot blue\"></span><span class=\"dot ylw\"></span>","blockType":"single","time_elapsed":164649,"number":3,"taskType":"color","size":"small","response":"arrowleft","trial_type":"html-keyboard-response","trial_index":209,"userId":"524d2272-d17f-42aa-b335-772a7ac10972","dateTime":"2021-11-13T00:04:44.894Z","isRelevant":true},{"internal_node_id":"0.0-0.0-9.0-2.32","rt":null,"response":null,"trial_type":"html-keyboard-response","stimulus":"<div class=\"fix\">+</div><br/><span class=\"dot\">","time_elapsed":165155,"trial_index":210,"userId":"524d2272-d17f-42aa-b335-772a7ac10972","dateTime":"2021-11-13T00:04:45.399Z","isRelevant":false},{"internal_node_id":"0.0-0.0-9.0-0.33","rt":null,"response":null,"trial_type":"html-keyboard-response","stimulus":"<span class=\"dot blue\"></span><span class=\"dot ylw\"></span>","time_elapsed":165661,"trial_index":211,"userId":"524d2272-d17f-42aa-b335-772a7ac10972","dateTime":"2021-11-13T00:04:45.905Z","isRelevant":false},{"internal_node_id":"0.0-0.0-9.0-1.33","rt":553,"color":"ylw","correct":true,"stimulus":"<div class=\"small ylw\"><p>3</p></div><span class=\"dot blue\"></span><span class=\"dot ylw\"></span>","blockType":"single","time_elapsed":166217,"number":3,"taskType":"color","size":"small","response":"arrowright","trial_type":"html-keyboard-response","trial_index":212,"userId":"524d2272-d17f-42aa-b335-772a7ac10972","dateTime":"2021-11-13T00:04:46.461Z","isRelevant":true},{"internal_node_id":"0.0-0.0-9.0-2.33","rt":null,"response":null,"trial_type":"html-keyboard-response","stimulus":"<div class=\"fix\">+</div><br/><span class=\"dot\">","time_elapsed":166720,"trial_index":213,"userId":"524d2272-d17f-42aa-b335-772a7ac10972","dateTime":"2021-11-13T00:04:46.964Z","isRelevant":false},{"internal_node_id":"0.0-0.0-10.0","rt":2711,"response":" ","trial_type":"html-keyboard-response","stimulus":"We are going to start a round of the task. Please respond as quickly as you can but try to avoid mistakes.<p>In this round, you will be categorizing numbers on their relative font size.</p><span class=\"smalldot\"></span><span class=\"dot white\"></span><br/><div style=\"padding-top: 40px;\"\"><em>Press the space bar when you are ready to begin</em></div>","time_elapsed":169433,"trial_index":214,"userId":"524d2272-d17f-42aa-b335-772a7ac10972","dateTime":"2021-11-13T00:04:49.678Z","isRelevant":false},{"internal_node_id":"0.0-0.0-11.0-0.0","rt":null,"response":null,"trial_type":"html-keyboard-response","stimulus":"<span class=\"smalldot\"></span><span class=\"dot white\"></span>","time_elapsed":169939,"trial_index":215,"userId":"524d2272-d17f-42aa-b335-772a7ac10972","dateTime":"2021-11-13T00:04:50.183Z","isRelevant":false},{"internal_node_id":"0.0-0.0-11.0-1.0","rt":651,"color":"ylw","correct":true,"stimulus":"<div class=\"big ylw\"><p>7</p></div><span class=\"smalldot\"></span><span class=\"dot white\"></span>","blockType":"single","time_elapsed":170593,"number":7,"taskType":"size","size":"big","response":"arrowright","trial_type":"html-keyboard-response","trial_index":216,"userId":"524d2272-d17f-42aa-b335-772a7ac10972","dateTime":"2021-11-13T00:04:50.837Z","isRelevant":true},{"internal_node_id":"0.0-0.0-11.0-2.0","rt":null,"response":null,"trial_type":"html-keyboard-response","stimulus":"<div class=\"fix\">+</div><br/><span class=\"dot\">","time_elapsed":171097,"trial_index":217,"userId":"524d2272-d17f-42aa-b335-772a7ac10972","dateTime":"2021-11-13T00:04:51.341Z","isRelevant":false},{"internal_node_id":"0.0-0.0-11.0-0.1","rt":null,"response":null,"trial_type":"html-keyboard-response","stimulus":"<span class=\"smalldot\"></span><span class=\"dot white\"></span>","time_elapsed":171602,"trial_index":218,"userId":"524d2272-d17f-42aa-b335-772a7ac10972","dateTime":"2021-11-13T00:04:51.846Z","isRelevant":false},{"internal_node_id":"0.0-0.0-11.0-1.1","rt":549,"color":"ylw","correct":true,"stimulus":"<div class=\"small ylw\"><p>1</p></div><span class=\"smalldot\"></span><span class=\"dot white\"></span>","blockType":"single","time_elapsed":172153,"number":1,"taskType":"size","size":"small","response":"arrowleft","trial_type":"html-keyboard-response","trial_index":219,"userId":"524d2272-d17f-42aa-b335-772a7ac10972","dateTime":"2021-11-13T00:04:52.397Z","isRelevant":true},{"internal_node_id":"0.0-0.0-11.0-2.1","rt":null,"response":null,"trial_type":"html-keyboard-response","stimulus":"<div class=\"fix\">+</div><br/><span class=\"dot\">","time_elapsed":172655,"trial_index":220,"userId":"524d2272-d17f-42aa-b335-772a7ac10972","dateTime":"2021-11-13T00:04:52.900Z","isRelevant":false},{"internal_node_id":"0.0-0.0-11.0-0.2","rt":null,"response":null,"trial_type":"html-keyboard-response","stimulus":"<span class=\"smalldot\"></span><span class=\"dot white\"></span>","time_elapsed":173158,"trial_index":221,"userId":"524d2272-d17f-42aa-b335-772a7ac10972","dateTime":"2021-11-13T00:04:53.403Z","isRelevant":false},{"internal_node_id":"0.0-0.0-11.0-1.2","rt":527,"color":"blue","correct":true,"stimulus":"<div class=\"small blue\"><p>3</p></div><span class=\"smalldot\"></span><span class=\"dot white\"></span>","blockType":"single","time_elapsed":173688,"number":3,"taskType":"size","size":"small","response":"arrowleft","trial_type":"html-keyboard-response","trial_index":222,"userId":"524d2272-d17f-42aa-b335-772a7ac10972","dateTime":"2021-11-13T00:04:53.933Z","isRelevant":true},{"internal_node_id":"0.0-0.0-11.0-2.2","rt":null,"response":null,"trial_type":"html-keyboard-response","stimulus":"<div class=\"fix\">+</div><br/><span class=\"dot\">","time_elapsed":174191,"trial_index":223,"userId":"524d2272-d17f-42aa-b335-772a7ac10972","dateTime":"2021-11-13T00:04:54.436Z","isRelevant":false},{"internal_node_id":"0.0-0.0-11.0-0.3","rt":null,"response":null,"trial_type":"html-keyboard-response","stimulus":"<span class=\"smalldot\"></span><span class=\"dot white\"></span>","time_elapsed":174693,"trial_index":224,"userId":"524d2272-d17f-42aa-b335-772a7ac10972","dateTime":"2021-11-13T00:04:54.938Z","isRelevant":false},{"internal_node_id":"0.0-0.0-11.0-1.3","rt":481,"color":"ylw","correct":true,"stimulus":"<div class=\"small ylw\"><p>3</p></div><span class=\"smalldot\"></span><span class=\"dot white\"></span>","blockType":"single","time_elapsed":175177,"number":3,"taskType":"size","size":"small","response":"arrowleft","trial_type":"html-keyboard-response","trial_index":225,"userId":"524d2272-d17f-42aa-b335-772a7ac10972","dateTime":"2021-11-13T00:04:55.421Z","isRelevant":true},{"internal_node_id":"0.0-0.0-11.0-2.3","rt":null,"response":null,"trial_type":"html-keyboard-response","stimulus":"<div class=\"fix\">+</div><br/><span class=\"dot\">","time_elapsed":175680,"trial_index":226,"userId":"524d2272-d17f-42aa-b335-772a7ac10972","dateTime":"2021-11-13T00:04:55.925Z","isRelevant":false},{"internal_node_id":"0.0-0.0-11.0-0.4","rt":null,"response":null,"trial_type":"html-keyboard-response","stimulus":"<span class=\"smalldot\"></span><span class=\"dot white\"></span>","time_elapsed":176185,"trial_index":227,"userId":"524d2272-d17f-42aa-b335-772a7ac10972","dateTime":"2021-11-13T00:04:56.429Z","isRelevant":false},{"internal_node_id":"0.0-0.0-11.0-1.4","rt":430,"color":"ylw","correct":true,"stimulus":"<div class=\"small ylw\"><p>3</p></div><span class=\"smalldot\"></span><span class=\"dot white\"></span>","blockType":"single","time_elapsed":176616,"number":3,"taskType":"size","size":"small","response":"arrowleft","trial_type":"html-keyboard-response","trial_index":228,"userId":"524d2272-d17f-42aa-b335-772a7ac10972","dateTime":"2021-11-13T00:04:56.861Z","isRelevant":true},{"internal_node_id":"0.0-0.0-11.0-2.4","rt":null,"response":null,"trial_type":"html-keyboard-response","stimulus":"<div class=\"fix\">+</div><br/><span class=\"dot\">","time_elapsed":177120,"trial_index":229,"userId":"524d2272-d17f-42aa-b335-772a7ac10972","dateTime":"2021-11-13T00:04:57.364Z","isRelevant":false},{"internal_node_id":"0.0-0.0-11.0-0.5","rt":null,"response":null,"trial_type":"html-keyboard-response","stimulus":"<span class=\"smalldot\"></span><span class=\"dot white\"></span>","time_elapsed":177625,"trial_index":230,"userId":"524d2272-d17f-42aa-b335-772a7ac10972","dateTime":"2021-11-13T00:04:57.869Z","isRelevant":false},{"internal_node_id":"0.0-0.0-11.0-1.5","rt":445,"color":"blue","correct":true,"stimulus":"<div class=\"small blue\"><p>3</p></div><span class=\"smalldot\"></span><span class=\"dot white\"></span>","blockType":"single","time_elapsed":178073,"number":3,"taskType":"size","size":"small","response":"arrowleft","trial_type":"html-keyboard-response","trial_index":231,"userId":"524d2272-d17f-42aa-b335-772a7ac10972","dateTime":"2021-11-13T00:04:58.317Z","isRelevant":true},{"internal_node_id":"0.0-0.0-11.0-2.5","rt":null,"response":null,"trial_type":"html-keyboard-response","stimulus":"<div class=\"fix\">+</div><br/><span class=\"dot\">","time_elapsed":178575,"trial_index":232,"userId":"524d2272-d17f-42aa-b335-772a7ac10972","dateTime":"2021-11-13T00:04:58.819Z","isRelevant":false},{"internal_node_id":"0.0-0.0-11.0-0.6","rt":null,"response":null,"trial_type":"html-keyboard-response","stimulus":"<span class=\"smalldot\"></span><span class=\"dot white\"></span>","time_elapsed":179079,"trial_index":233,"userId":"524d2272-d17f-42aa-b335-772a7ac10972","dateTime":"2021-11-13T00:04:59.323Z","isRelevant":false},{"internal_node_id":"0.0-0.0-11.0-1.6","rt":519,"color":"ylw","correct":true,"stimulus":"<div class=\"big ylw\"><p>9</p></div><span class=\"smalldot\"></span><span class=\"dot white\"></span>","blockType":"single","time_elapsed":179600,"number":9,"taskType":"size","size":"big","response":"arrowright","trial_type":"html-keyboard-response","trial_index":234,"userId":"524d2272-d17f-42aa-b335-772a7ac10972","dateTime":"2021-11-13T00:04:59.845Z","isRelevant":true},{"internal_node_id":"0.0-0.0-11.0-2.6","rt":null,"response":null,"trial_type":"html-keyboard-response","stimulus":"<div class=\"fix\">+</div><br/><span class=\"dot\">","time_elapsed":180106,"trial_index":235,"userId":"524d2272-d17f-42aa-b335-772a7ac10972","dateTime":"2021-11-13T00:05:00.351Z","isRelevant":false},{"internal_node_id":"0.0-0.0-11.0-0.7","rt":null,"response":null,"trial_type":"html-keyboard-response","stimulus":"<span class=\"smalldot\"></span><span class=\"dot white\"></span>","time_elapsed":180609,"trial_index":236,"userId":"524d2272-d17f-42aa-b335-772a7ac10972","dateTime":"2021-11-13T00:05:00.853Z","isRelevant":false},{"internal_node_id":"0.0-0.0-11.0-1.7","rt":574,"color":"ylw","correct":true,"stimulus":"<div class=\"small ylw\"><p>3</p></div><span class=\"smalldot\"></span><span class=\"dot white\"></span>","blockType":"single","time_elapsed":181186,"number":3,"taskType":"size","size":"small","response":"arrowleft","trial_type":"html-keyboard-response","trial_index":237,"userId":"524d2272-d17f-42aa-b335-772a7ac10972","dateTime":"2021-11-13T00:05:01.430Z","isRelevant":true},{"internal_node_id":"0.0-0.0-11.0-2.7","rt":null,"response":null,"trial_type":"html-keyboard-response","stimulus":"<div class=\"fix\">+</div><br/><span class=\"dot\">","time_elapsed":181691,"trial_index":238,"userId":"524d2272-d17f-42aa-b335-772a7ac10972","dateTime":"2021-11-13T00:05:01.936Z","isRelevant":false},{"internal_node_id":"0.0-0.0-11.0-0.8","rt":null,"response":null,"trial_type":"html-keyboard-response","stimulus":"<span class=\"smalldot\"></span><span class=\"dot white\"></span>","time_elapsed":182196,"trial_index":239,"userId":"524d2272-d17f-42aa-b335-772a7ac10972","dateTime":"2021-11-13T00:05:02.441Z","isRelevant":false},{"internal_node_id":"0.0-0.0-11.0-1.8","rt":736,"color":"ylw","correct":true,"stimulus":"<div class=\"big ylw\"><p>1</p></div><span class=\"smalldot\"></span><span class=\"dot white\"></span>","blockType":"single","time_elapsed":182937,"number":1,"taskType":"size","size":"big","response":"arrowright","trial_type":"html-keyboard-response","trial_index":240,"userId":"524d2272-d17f-42aa-b335-772a7ac10972","dateTime":"2021-11-13T00:05:03.182Z","isRelevant":true},{"internal_node_id":"0.0-0.0-11.0-2.8","rt":null,"response":null,"trial_type":"html-keyboard-response","stimulus":"<div class=\"fix\">+</div><br/><span class=\"dot\">","time_elapsed":183442,"trial_index":241,"userId":"524d2272-d17f-42aa-b335-772a7ac10972","dateTime":"2021-11-13T00:05:03.686Z","isRelevant":false},{"internal_node_id":"0.0-0.0-11.0-0.9","rt":null,"response":null,"trial_type":"html-keyboard-response","stimulus":"<span class=\"smalldot\"></span><span class=\"dot white\"></span>","time_elapsed":183945,"trial_index":242,"userId":"524d2272-d17f-42aa-b335-772a7ac10972","dateTime":"2021-11-13T00:05:04.189Z","isRelevant":false},{"internal_node_id":"0.0-0.0-11.0-1.9","rt":517,"color":"blue","correct":true,"stimulus":"<div class=\"big blue\"><p>1</p></div><span class=\"smalldot\"></span><span class=\"dot white\"></span>","blockType":"single","time_elapsed":184464,"number":1,"taskType":"size","size":"big","response":"arrowright","trial_type":"html-keyboard-response","trial_index":243,"userId":"524d2272-d17f-42aa-b335-772a7ac10972","dateTime":"2021-11-13T00:05:04.709Z","isRelevant":true},{"internal_node_id":"0.0-0.0-11.0-2.9","rt":null,"response":null,"trial_type":"html-keyboard-response","stimulus":"<div class=\"fix\">+</div><br/><span class=\"dot\">","time_elapsed":184968,"trial_index":244,"userId":"524d2272-d17f-42aa-b335-772a7ac10972","dateTime":"2021-11-13T00:05:05.212Z","isRelevant":false},{"internal_node_id":"0.0-0.0-11.0-0.10","rt":null,"response":null,"trial_type":"html-keyboard-response","stimulus":"<span class=\"smalldot\"></span><span class=\"dot white\"></span>","time_elapsed":185471,"trial_index":245,"userId":"524d2272-d17f-42aa-b335-772a7ac10972","dateTime":"2021-11-13T00:05:05.716Z","isRelevant":false},{"internal_node_id":"0.0-0.0-11.0-1.10","rt":598,"color":"blue","correct":true,"stimulus":"<div class=\"big blue\"><p>4</p></div><span class=\"smalldot\"></span><span class=\"dot white\"></span>","blockType":"single","time_elapsed":186073,"number":4,"taskType":"size","size":"big","response":"arrowright","trial_type":"html-keyboard-response","trial_index":246,"userId":"524d2272-d17f-42aa-b335-772a7ac10972","dateTime":"2021-11-13T00:05:06.318Z","isRelevant":true},{"internal_node_id":"0.0-0.0-11.0-2.10","rt":null,"response":null,"trial_type":"html-keyboard-response","stimulus":"<div class=\"fix\">+</div><br/><span class=\"dot\">","time_elapsed":186579,"trial_index":247,"userId":"524d2272-d17f-42aa-b335-772a7ac10972","dateTime":"2021-11-13T00:05:06.823Z","isRelevant":false},{"internal_node_id":"0.0-0.0-11.0-0.11","rt":null,"response":null,"trial_type":"html-keyboard-response","stimulus":"<span class=\"smalldot\"></span><span class=\"dot white\"></span>","time_elapsed":187083,"trial_index":248,"userId":"524d2272-d17f-42aa-b335-772a7ac10972","dateTime":"2021-11-13T00:05:07.328Z","isRelevant":false},{"internal_node_id":"0.0-0.0-11.0-1.11","rt":451,"color":"blue","correct":true,"stimulus":"<div class=\"big blue\"><p>7</p></div><span class=\"smalldot\"></span><span class=\"dot white\"></span>","blockType":"single","time_elapsed":187537,"number":7,"taskType":"size","size":"big","response":"arrowright","trial_type":"html-keyboard-response","trial_index":249,"userId":"524d2272-d17f-42aa-b335-772a7ac10972","dateTime":"2021-11-13T00:05:07.781Z","isRelevant":true},{"internal_node_id":"0.0-0.0-11.0-2.11","rt":null,"response":null,"trial_type":"html-keyboard-response","stimulus":"<div class=\"fix\">+</div><br/><span class=\"dot\">","time_elapsed":188039,"trial_index":250,"userId":"524d2272-d17f-42aa-b335-772a7ac10972","dateTime":"2021-11-13T00:05:08.283Z","isRelevant":false},{"internal_node_id":"0.0-0.0-11.0-0.12","rt":null,"response":null,"trial_type":"html-keyboard-response","stimulus":"<span class=\"smalldot\"></span><span class=\"dot white\"></span>","time_elapsed":188542,"trial_index":251,"userId":"524d2272-d17f-42aa-b335-772a7ac10972","dateTime":"2021-11-13T00:05:08.786Z","isRelevant":false},{"internal_node_id":"0.0-0.0-11.0-1.12","rt":579,"color":"blue","correct":false,"stimulus":"<div class=\"big blue\"><p>2</p></div><span class=\"smalldot\"></span><span class=\"dot white\"></span>","blockType":"single","time_elapsed":189121,"number":2,"taskType":"size","size":"big","response":"arrowleft","trial_type":"html-keyboard-response","trial_index":252,"userId":"524d2272-d17f-42aa-b335-772a7ac10972","dateTime":"2021-11-13T00:05:09.365Z","isRelevant":true},{"internal_node_id":"0.0-0.0-11.0-2.12","rt":null,"response":null,"trial_type":"html-keyboard-response","stimulus":"<div class=\"fix\">+</div><br/><span class=\"dot\">","time_elapsed":189624,"trial_index":253,"userId":"524d2272-d17f-42aa-b335-772a7ac10972","dateTime":"2021-11-13T00:05:09.869Z","isRelevant":false},{"internal_node_id":"0.0-0.0-11.0-0.13","rt":null,"response":null,"trial_type":"html-keyboard-response","stimulus":"<span class=\"smalldot\"></span><span class=\"dot white\"></span>","time_elapsed":190129,"trial_index":254,"userId":"524d2272-d17f-42aa-b335-772a7ac10972","dateTime":"2021-11-13T00:05:10.374Z","isRelevant":false},{"internal_node_id":"0.0-0.0-11.0-1.13","rt":574,"color":"blue","correct":true,"stimulus":"<div class=\"big blue\"><p>8</p></div><span class=\"smalldot\"></span><span class=\"dot white\"></span>","blockType":"single","time_elapsed":190705,"number":8,"taskType":"size","size":"big","response":"arrowright","trial_type":"html-keyboard-response","trial_index":255,"userId":"524d2272-d17f-42aa-b335-772a7ac10972","dateTime":"2021-11-13T00:05:10.950Z","isRelevant":true},{"internal_node_id":"0.0-0.0-11.0-2.13","rt":null,"response":null,"trial_type":"html-keyboard-response","stimulus":"<div class=\"fix\">+</div><br/><span class=\"dot\">","time_elapsed":191209,"trial_index":256,"userId":"524d2272-d17f-42aa-b335-772a7ac10972","dateTime":"2021-11-13T00:05:11.453Z","isRelevant":false},{"internal_node_id":"0.0-0.0-11.0-0.14","rt":null,"response":null,"trial_type":"html-keyboard-response","stimulus":"<span class=\"smalldot\"></span><span class=\"dot white\"></span>","time_elapsed":191711,"trial_index":257,"userId":"524d2272-d17f-42aa-b335-772a7ac10972","dateTime":"2021-11-13T00:05:11.956Z","isRelevant":false},{"internal_node_id":"0.0-0.0-11.0-1.14","rt":688,"color":"blue","correct":true,"stimulus":"<div class=\"small blue\"><p>9</p></div><span class=\"smalldot\"></span><span class=\"dot white\"></span>","blockType":"single","time_elapsed":192401,"number":9,"taskType":"size","size":"small","response":"arrowleft","trial_type":"html-keyboard-response","trial_index":258,"userId":"524d2272-d17f-42aa-b335-772a7ac10972","dateTime":"2021-11-13T00:05:12.645Z","isRelevant":true},{"internal_node_id":"0.0-0.0-11.0-2.14","rt":null,"response":null,"trial_type":"html-keyboard-response","stimulus":"<div class=\"fix\">+</div><br/><span class=\"dot\">","time_elapsed":192907,"trial_index":259,"userId":"524d2272-d17f-42aa-b335-772a7ac10972","dateTime":"2021-11-13T00:05:13.151Z","isRelevant":false},{"internal_node_id":"0.0-0.0-11.0-0.15","rt":null,"response":null,"trial_type":"html-keyboard-response","stimulus":"<span class=\"smalldot\"></span><span class=\"dot white\"></span>","time_elapsed":193409,"trial_index":260,"userId":"524d2272-d17f-42aa-b335-772a7ac10972","dateTime":"2021-11-13T00:05:13.654Z","isRelevant":false},{"internal_node_id":"0.0-0.0-11.0-1.15","rt":524,"color":"blue","correct":true,"stimulus":"<div class=\"big blue\"><p>8</p></div><span class=\"smalldot\"></span><span class=\"dot white\"></span>","blockType":"single","time_elapsed":193937,"number":8,"taskType":"size","size":"big","response":"arrowright","trial_type":"html-keyboard-response","trial_index":261,"userId":"524d2272-d17f-42aa-b335-772a7ac10972","dateTime":"2021-11-13T00:05:14.181Z","isRelevant":true},{"internal_node_id":"0.0-0.0-11.0-2.15","rt":null,"response":null,"trial_type":"html-keyboard-response","stimulus":"<div class=\"fix\">+</div><br/><span class=\"dot\">","time_elapsed":194443,"trial_index":262,"userId":"524d2272-d17f-42aa-b335-772a7ac10972","dateTime":"2021-11-13T00:05:14.687Z","isRelevant":false},{"internal_node_id":"0.0-0.0-11.0-0.16","rt":null,"response":null,"trial_type":"html-keyboard-response","stimulus":"<span class=\"smalldot\"></span><span class=\"dot white\"></span>","time_elapsed":194947,"trial_index":263,"userId":"524d2272-d17f-42aa-b335-772a7ac10972","dateTime":"2021-11-13T00:05:15.192Z","isRelevant":false},{"internal_node_id":"0.0-0.0-11.0-1.16","rt":675,"color":"ylw","correct":true,"stimulus":"<div class=\"big ylw\"><p>6</p></div><span class=\"smalldot\"></span><span class=\"dot white\"></span>","blockType":"single","time_elapsed":195625,"number":6,"taskType":"size","size":"big","response":"