[{"taskStarted":true,"dateTime":"2021-11-15T17:03:20.471Z","isRelevant":false},{"trial_index":0,"internal_node_id":"0.0-0.0-1.0-0.0","value":{"duration":261153},"trial_type":"call-function","time_elapsed":113,"dateTime":"2021-11-15T17:03:20.584Z","isRelevant":false},{"duration":261153,"trial_index":1,"internal_node_id":"0.0-0.0-1.0-1.0-0.0","trial_type":"countdown","time_elapsed":263673,"dateTime":"2021-11-15T17:07:44.144Z","isRelevant":false},{"internal_node_id":"0.0-0.0-2.0","rt":13053,"response":" ","trial_type":"html-keyboard-response","stimulus":"We presented two different lists of words to you earlier: a first list that we presented several times, and a second list that we presented you once. Type all the words you can that were from the first list. Don’t type words from the second list, just the first list. <br> <em>Press the space bar to continue.</em> ","time_elapsed":276728,"trial_index":2,"dateTime":"2021-11-15T17:07:57.199Z","isRelevant":false},{"trial_index":3,"internal_node_id":"0.0-0.0-3.0","response":[],"trial_type":"memory-field","stimulus":"Please type as many of the words that you remember from the first list as you can. <br> <br> <em> You can enter them in any order, just type as many of them as you can. <br> Press the enter key after each word to save your response. <br> Press stop if you are done. </em> ","time_elapsed":403724,"dateTime":"2021-11-15T17:10:04.195Z","isRelevant":true},{"internal_node_id":"0.0-0.0-4.0","rt":6885,"response":" ","trial_type":"html-keyboard-response","stimulus":"Type all words from the first list that are furniture. <br> <em>Press the space bar to continue.</em> ","time_elapsed":410612,"trial_index":4,"dateTime":"2021-11-15T17:10:11.083Z","isRelevant":false},{"trial_index":5,"internal_node_id":"0.0-0.0-5.0","response":[],"trial_type":"memory-field","stimulus":"Please type as many of the words that you heard from the first list that are furniture as you can. <br> <br> <em> You can enter them in any order, just type as many of them as you can. <br> Press the enter key after each word to save your response. <br> Press stop if you are done. </em> ","time_elapsed":444011,"dateTime":"2021-11-15T17:10:44.482Z","isRelevant":true},{"internal_node_id":"0.0-0.0-6.0","rt":3144,"response":" ","trial_type":"html-keyboard-response","stimulus":"Type all words from the first list that are vegetables. <br> <em>Press the space bar to continue.</em> ","time_elapsed":447157,"trial_index":6,"dateTime":"2021-11-15T17:10:47.628Z","isRelevant":false},{"trial_index":7,"internal_node_id":"0.0-0.0-7.0","response":[],"trial_type":"memory-field","stimulus":"Please type as many of the words that you heard from the first list that are vegetables as you can. <br> <br> <em> You can enter them in any order, just type as many of them as you can. <br> Press the enter key after each word to save your response. <br> Press stop if you are done. </em> ","time_elapsed":468715,"dateTime":"2021-11-15T17:11:09.186Z","isRelevant":true},{"internal_node_id":"0.0-0.0-8.0","rt":3761,"response":" ","trial_type":"html-keyboard-response","stimulus":"Type all words from the first list that are ways of traveling. <br> <em>Press the space bar to continue.</em> ","time_elapsed":472477,"trial_index":8,"dateTime":"2021-11-15T17:11:12.948Z","isRelevant":false},{"trial_index":9,"internal_node_id":"0.0-0.0-9.0","response":[],"trial_type":"memory-field","stimulus":"Please type as many of the words that you heard from the first list that are ways of traveling as you can. <br> <br> <em> You can enter them in any order, just type as many of them as you can. <br> Press the enter key after each word to save your response. <br> Press stop if you are done. </em> ","time_elapsed":495840,"dateTime":"2021-11-15T17:11:36.311Z","isRelevant":true},{"internal_node_id":"0.0-0.0-10.0","rt":3814,"response":" ","trial_type":"html-keyboard-response","stimulus":"Type all words from the first list that are animals. <br> <em>Press the space bar to continue.</em> ","time_elapsed":499654,"trial_index":10,"dateTime":"2021-11-15T17:11:40.125Z","isRelevant":false},{"ua":"Mozilla/5.0 (Macintosh; Intel Mac OS X 10.15; rv:94.0) Gecko/20100101 Firefox/94.0","dateTime":"2021-11-15T17:12:32.167Z","isRelevant":false},{"taskStarted":true,"dateTime":"2021-11-08T19:27:30.810Z","isRelevant":false},{"trial_index":0,"internal_node_id":"0.0-0.0-1.0-0.0","value":{"duration":269077},"trial_type":"call-function","time_elapsed":193,"dateTime":"2021-11-08T19:27:31.002Z","isRelevant":false},{"duration":269077,"trial_index":1,"internal_node_id":"0.0-0.0-1.0-1.0-0.0","trial_type":"countdown","time_elapsed":279647,"dateTime":"2021-11-08T19:32:10.456Z","isRelevant":false},{"internal_node_id":"0.0-0.0-2.0","rt":2700.300000190735,"response":" ","trial_type":"html-keyboard-response","stimulus":"We presented two different lists of words to you earlier: a first list that we presented several times, and a second list that we presented you once. Type all the words you can that were from the first list. Don’t type words from the second list, just the first list. <br> <em>Press the space bar to continue.</em> ","time_elapsed":282349,"trial_index":2,"dateTime":"2021-11-08T19:32:13.158Z","isRelevant":false},{"trial_index":3,"internal_node_id":"0.0-0.0-3.0","response":["cabinet","bookcase","lamp","desk","squirrel","cow","zebra","celery","cabbage","onion","truck","boat","subway"],"trial_type":"memory-field","stimulus":"Please type as many of the words that you remember from the first list as you can. <br> <br> <em> You can enter them in any order, just type as many of them as you can. <br> Press the enter key after each word to save your response. <br> Press stop if you are done. </em> ","time_elapsed":317306,"dateTime":"2021-11-08T19:32:48.115Z","isRelevant":true},{"internal_node_id":"0.0-0.0-4.0","rt":1973.8000001907349,"response":" ","trial_type":"html-keyboard-response","stimulus":"Type all words from the first list that are furniture. <br> <em>Press the space bar to continue.</em> ","time_elapsed":319282,"trial_index":4,"dateTime":"2021-11-08T19:32:50.092Z","isRelevant":false},{"trial_index":5,"internal_node_id":"0.0-0.0-5.0","response":["desk","lamp","bookcase","cabinet"],"trial_type":"memory-field","stimulus":"Please type as many of the words that you heard from the first list that are furniture as you can. <br> <br> <em> You can enter them in any order, just type as many of them as you can. <br> Press the enter key after each word to save your response. <br> Press stop if you are done. </em> ","time_elapsed":325896,"dateTime":"2021-11-08T19:32:56.705Z","isRelevant":true},{"internal_node_id":"0.0-0.0-6.0","rt":1566.5999999046326,"response":" ","trial_type":"html-keyboard-response","stimulus":"Type all words from the first list that are vegetables. <br> <em>Press the space bar to continue.</em> ","time_elapsed":327466,"trial_index":6,"dateTime":"2021-11-08T19:32:58.275Z","isRelevant":false},{"trial_index":7,"internal_node_id":"0.0-0.0-7.0","response":["celery","onion","cabbage"],"trial_type":"memory-field","stimulus":"Please type as many of the words that you heard from the first list that are vegetables as you can. <br> <br> <em> You can enter them in any order, just type as many of them as you can. <br> Press the enter key after each word to save your response. <br> Press stop if you are done. </em> ","time_elapsed":346181,"dateTime":"2021-11-08T19:33:16.990Z","isRelevant":true},{"internal_node_id":"0.0-0.0-8.0","rt":778.6999998092651,"response":" ","trial_type":"html-keyboard-response","stimulus":"Type all words from the first list that are ways of traveling. <br> <em>Press the space bar to continue.</em> ","time_elapsed":346963,"trial_index":8,"dateTime":"2021-11-08T19:33:17.772Z","isRelevant":false},{"trial_index":9,"internal_node_id":"0.0-0.0-9.0","response":["subway","boat","truck","subway"],"trial_type":"memory-field","stimulus":"Please type as many of the words that you heard from the first list that are ways of traveling as you can. <br> <br> <em> You can enter them in any order, just type as many of them as you can. <br> Press the enter key after each word to save your response. <br> Press stop if you are done. </em> ","time_elapsed":356328,"dateTime":"2021-11-08T19:33:27.137Z","isRelevant":true},{"internal_node_id":"0.0-0.0-10.0","rt":938.5,"response":" ","trial_type":"html-keyboard-response","stimulus":"Type all words from the first list that are animals. <br> <em>Press the space bar to continue.</em> ","time_elapsed":357268,"trial_index":10,"dateTime":"2021-11-08T19:33:28.077Z","isRelevant":false},{"trial_index":11,"internal_node_id":"0.0-0.0-11.0","response":["squirrel","zebra","giraffe"],"trial_type":"memory-field","stimulus":"Please type as many of the words that you heard from the first list that are animals as you can. <br> <br> <em> You can enter them in any order, just type as many of them as you can. <br> Press the enter key after each word to save your response. <br> Press stop if you are done. </em> ","time_elapsed":364119,"dateTime":"2021-11-08T19:33:34.929Z","isRelevant":true},{"ua":"Mozilla/5.0 (Macintosh; Intel Mac OS X 10_15_7) AppleWebKit/537.36 (KHTML, like Gecko) Chrome/95.0.4638.69 Safari/537.36","dateTime":"2021-11-08T19:33:34.930Z","isRelevant":false},{"taskStarted":true,"dateTime":"2021-11-15T06:47:23.874Z","isRelevant":false},{"trial_index":0,"internal_node_id":"0.0-0.0-1.0-0.0","value":{"duration":237616},"trial_type":"call-function","time_elapsed":286,"dateTime":"2021-11-15T06:47:24.160Z","isRelevant":false},{"duration":237616,"trial_index":1,"internal_node_id":"0.0-0.0-1.0-1.0-0.0","trial_type":"countdown","time_elapsed":252592,"dateTime":"2021-11-15T06:51:36.466Z","isRelevant":false},{"internal_node_id":"0.0-0.0-2.0","rt":5468,"response":" ","trial_type":"html-keyboard-response","stimulus":"We presented two different lists of words to you earlier: a first list that we presented several times, and a second list that we presented you once. Type all the words you can that were from the first list. Don’t type words from the second list, just the first list. <br> <em>Press the space bar to continue.</em> ","time_elapsed":258066,"trial_index":2,"dateTime":"2021-11-15T06:51:41.940Z","isRelevant":false},{"trial_index":3,"internal_node_id":"0.0-0.0-3.0","response":["cabbage","celery","onion","spinach","bookcase","desk","lamp","cabinet","zebra","giraffe","cow","squirrel","subway","truck","boat","motorcycle"],"trial_type":"memory-field","stimulus":"Please type as many of the words that you remember from the first list as you can. <br> <br> <em> You can enter them in any order, just type as many of them as you can. <br> Press the enter key after each word to save your response. <br> Press stop if you are done. </em> ","time_elapsed":289133,"dateTime":"2021-11-15T06:52:13.007Z","isRelevant":true},{"internal_node_id":"0.0-0.0-4.0","rt":1696,"response":" ","trial_type":"html-keyboard-response","stimulus":"Type all words from the first list that are furniture. <br> <em>Press the space bar to continue.</em> ","time_elapsed":290844,"trial_index":4,"dateTime":"2021-11-15T06:52:14.718Z","isRelevant":false},{"trial_index":5,"internal_node_id":"0.0-0.0-5.0","response":["desk","lamp","cabinet","bookcase"],"trial_type":"memory-field","stimulus":"Please type as many of the words that you heard from the first list that are furniture as you can. <br> <br> <em> You can enter them in any order, just type as many of them as you can. <br> Press the enter key after each word to save your response. <br> Press stop if you are done. </em> ","time_elapsed":298671,"dateTime":"2021-11-15T06:52:22.545Z","isRelevant":true},{"internal_node_id":"0.0-0.0-6.0","rt":893.3999999761581,"response":" ","trial_type":"html-keyboard-response","stimulus":"Type all words from the first list that are vegetables. <br> <em>Press the space bar to continue.</em> ","time_elapsed":299576,"trial_index":6,"dateTime":"2021-11-15T06:52:23.450Z","isRelevant":false},{"trial_index":7,"internal_node_id":"0.0-0.0-7.0","response":["celery","cabbage","onion","spinach"],"trial_type":"memory-field","stimulus":"Please type as many of the words that you heard from the first list that are vegetables as you can. <br> <br> <em> You can enter them in any order, just type as many of them as you can. <br> Press the enter key after each word to save your response. <br> Press stop if you are done. </em> ","time_elapsed":312948,"dateTime":"2021-11-15T06:52:36.822Z","isRelevant":true},{"internal_node_id":"0.0-0.0-8.0","rt":848,"response":" ","trial_type":"html-keyboard-response","stimulus":"Type all words from the first list that are ways of traveling. <br> <em>Press the space bar to continue.</em> ","time_elapsed":313804,"trial_index":8,"dateTime":"2021-11-15T06:52:37.678Z","isRelevant":false},{"trial_index":9,"internal_node_id":"0.0-0.0-9.0","response":["boat","truck","subway","motorcycle"],"trial_type":"memory-field","stimulus":"Please type as many of the words that you heard from the first list that are ways of traveling as you can. <br> <br> <em> You can enter them in any order, just type as many of them as you can. <br> Press the enter key after each word to save your response. <br> Press stop if you are done. </em> ","time_elapsed":331811,"dateTime":"2021-11-15T06:52:55.685Z","isRelevant":true},{"internal_node_id":"0.0-0.0-10.0","rt":772,"response":" ","trial_type":"html-keyboard-response","stimulus":"Type all words from the first list that are animals. <br> <em>Press the space bar to continue.</em> ","time_elapsed":332591,"trial_index":10,"dateTime":"2021-11-15T06:52:56.465Z","isRelevant":false},{"trial_index":11,"internal_node_id":"0.0-0.0-11.0","response":["squirrel","cow","zebra","giraffe"],"trial_type":"memory-field","stimulus":"Please type as many of the words that you heard from the first list that are animals as you can. <br> <br> <em> You can enter them in any order, just type as many of them as you can. <br> Press the enter key after each word to save your response. <br> Press stop if you are done. </em> ","time_elapsed":341249,"dateTime":"2021-11-15T06:53:05.123Z","isRelevant":true},{"ua":"Mozilla/5.0 (Windows NT 10.0; Win64; x64) AppleWebKit/537.36 (KHTML, like Gecko) Chrome/95.0.4638.69 Safari/537.36 Edg/95.0.1020.53","dateTime":"2021-11-15T06:53:05.135Z","isRelevant":false},{"taskStarted":true,"dateTime":"2021-11-17T16:25:43.972Z","isRelevant":false},{"internal_node_id":"0.0-0.0-0.0-0.0","success":true,"trial_type":"fullscreen","failed_images":[],"time_elapsed":116,"trial_index":0,"failed_audio":[],"failed_video":[],"timeout":false,"dateTime":"2021-11-17T16:25:44.088Z","isRelevant":false},{"trial_index":1,"internal_node_id":"0.0-0.0-1.0-0.0","value":{"duration":-1637165144204},"trial_type":"call-function","time_elapsed":232,"dateTime":"2021-11-17T16:25:44.205Z","isRelevant":false},{"internal_node_id":"0.0-0.0-2.0","rt":4759,"response":" ","trial_type":"html-keyboard-response","stimulus":"We presented two different lists of words to you earlier: a first list that we presented several times, and a second list that we presented you once.\nType all the words you can that were from the first list.\nDon’t type words from the second list, just the first list. <br>\n<em>Press the space bar to continue.</em>\n","time_elapsed":4999,"trial_index":2,"dateTime":"2021-11-17T16:25:48.971Z","isRelevant":false},{"trial_index":3,"internal_node_id":"0.0-0.0-3.0","response":["foo"],"trial_type":"memory-field","stimulus":"Please type as many of the words that you remember from the first list as you can. <br>\n<br>\n<em>\n    You can enter them in any order, just type as many of them as you can. <br>\n    Press the enter key after each word to save your response. <br>\n    Press stop if you are done.\n</em>\n","time_elapsed":12585,"dateTime":"2021-11-17T16:25:56.558Z","isRelevant":true},{"internal_node_id":"0.0-0.0-4.0","rt":2399,"response":" ","trial_type":"html-keyboard-response","stimulus":"Type all words from the first list that are furniture. <br>\n<em>Press the space bar to continue.</em>\n","time_elapsed":14991,"trial_index":4,"dateTime":"2021-11-17T16:25:58.963Z","isRelevant":false},{"trial_index":5,"internal_node_id":"0.0-0.0-5.0","response":["bar"],"trial_type":"memory-field","stimulus":"Please type as many of the words that you heard from the first list that are furniture as you can. <br>\n<br>\n<em>\n    You can enter them in any order, just type as many of them as you can. <br>\n    Press the enter key after each word to save your response. <br>\n    Press stop if you are done.\n</em>\n","time_elapsed":18024,"dateTime":"2021-11-17T16:26:01.996Z","isRelevant":true},{"internal_node_id":"0.0-0.0-6.0","rt":2873,"response":" ","trial_type":"html-keyboard-response","stimulus":"Type all words from the first list that are vegetables. <br>\n<em>Press the space bar to continue.</em>\n","time_elapsed":20903,"trial_index":6,"dateTime":"2021-11-17T16:26:04.876Z","isRelevant":false},{"trial_index":7,"internal_node_id":"0.0-0.0-7.0","response":["bus"],"trial_type":"memory-field","stimulus":"Please type as many of the words that you heard from the first list that are vegetables as you can. <br>\n<br>\n<em>\n    You can enter them in any order, just type as many of them as you can. <br>\n    Press the enter key after each word to save your response. <br>\n    Press stop if you are done.\n</em>\n","time_elapsed":23738,"dateTime":"2021-11-17T16:26:07.711Z","isRelevant":true},{"internal_node_id":"0.0-0.0-8.0","rt":706,"response":" ","trial_type":"html-keyboard-response","stimulus":"Type all words from the first list that are ways of traveling. <br>\n<em>Press the space bar to continue.</em>\n","time_elapsed":24450,"trial_index":8,"dateTime":"2021-11-17T16:26:08.423Z","isRelevant":false},{"trial_index":9,"internal_node_id":"0.0-0.0-9.0","response":["cow"],"trial_type":"memory-field","stimulus":"Please type as many of the words that you heard from the first list that are ways of traveling as you can. <br>\n<br>\n<em>\n    You can enter them in any order, just type as many of them as you can. <br>\n    Press the enter key after each word to save your response. <br>\n    Press stop if you are done.\n</em>\n","time_elapsed":28527,"dateTime":"2021-11-17T16:26:12.499Z","isRelevant":true},{"internal_node_id":"0.0-0.0-10.0","rt":902,"response":" ","trial_type":"html-keyboard-response","stimulus":"Type all words from the first list that are animals. <br>\n<em>Press the space bar to continue.</em>\n","time_elapsed":29434,"trial_index":10,"dateTime":"2021-11-17T16:26:13.407Z","isRelevant":false},{"trial_index":11,"internal_node_id":"0.0-0.0-11.0","response":["pangolin"],"trial_type":"memory-field","stimulus":"Please type as many of the words that you heard from the first list that are animals as you can. <br>\n<br>\n<em>\n    You can enter them in any order, just type as many of them as you can. <br>\n    Press the enter key after each word to save your response. <br>\n    Press stop if you are done.\n</em>\n","time_elapsed":33623,"dateTime":"2021-11-17T16:26:17.595Z","isRelevant":true},{"ua":"Mozilla/5.0 (Macintosh; Intel Mac OS X 10.13; rv:94.0) Gecko/20100101 Firefox/94.0","dateTime":"2021-11-17T16:26:17.599Z","isRelevant":false},{"taskStarted":true,"dateTime":"2021-11-16T23:22:30.401Z","isRelevant":false},{"trial_index":0,"internal_node_id":"0.0-0.0-1.0-0.0","value":{"duration":280548},"trial_type":"call-function","time_elapsed":236,"dateTime":"2021-11-16T23:22:30.637Z","isRelevant":false},{"duration":280548,"trial_index":1,"internal_node_id":"0.0-0.0-1.0-1.0-0.0","trial_type":"countdown","time_elapsed":296358,"dateTime":"2021-11-16T23:27:26.760Z","isRelevant":false},{"internal_node_id":"0.0-0.0-2.0","rt":7892.299999952316,"response":" ","trial_type":"html-keyboard-response","stimulus":"We presented two different lists of words to you earlier: a first list that we presented several times, and a second list that we presented you once. Type all the words you can that were from the first list. Don’t type words from the second list, just the first list. <br> <em>Press the space bar to continue.</em> ","time_elapsed":304253,"trial_index":2,"dateTime":"2021-11-16T23:27:34.654Z","isRelevant":false},{"trial_index":3,"internal_node_id":"0.0-0.0-3.0","response":["truck","spinach","giraffe","bookcase","zebra","motorcycle","subway","cow","celery","lamp","desk","boat","squirrel","cabbage"],"trial_type":"memory-field","stimulus":"Please type as many of the words that you remember from the first list as you can. <br> <br> <em> You can enter them in any order, just type as many of them as you can. <br> Press the enter key after each word to save your response. <br> Press stop if you are done. </em> ","time_elapsed":345392,"dateTime":"2021-11-16T23:28:15.793Z","isRelevant":true},{"internal_node_id":"0.0-0.0-4.0","rt":2651,"response":" ","trial_type":"html-keyboard-response","stimulus":"Type all words from the first list that are furniture. <br> <em>Press the space bar to continue.</em> ","time_elapsed":348046,"trial_index":4,"dateTime":"2021-11-16T23:28:18.447Z","isRelevant":false},{"trial_index":5,"internal_node_id":"0.0-0.0-5.0","response":["desk","lamp","bookcase","cabinet"],"trial_type":"memory-field","stimulus":"Please type as many of the words that you heard from the first list that are furniture as you can. <br> <br> <em> You can enter them in any order, just type as many of them as you can. <br> Press the enter key after each word to save your response. <br> Press stop if you are done. </em> ","time_elapsed":365622,"dateTime":"2021-11-16T23:28:36.023Z","isRelevant":true},{"internal_node_id":"0.0-0.0-6.0","rt":1380.3000000715256,"response":" ","trial_type":"html-keyboard-response","stimulus":"Type all words from the first list that are vegetables. <br> <em>Press the space bar to continue.</em> ","time_elapsed":367004,"trial_index":6,"dateTime":"2021-11-16T23:28:37.406Z","isRelevant":false},{"trial_index":7,"internal_node_id":"0.0-0.0-7.0","response":["cabbage","celery","spinach","onion"],"trial_type":"memory-field","stimulus":"Please type as many of the words that you heard from the first list that are vegetables as you can. <br> <br> <em> You can enter them in any order, just type as many of them as you can. <br> Press the enter key after each word to save your response. <br> Press stop if you are done. </em> ","time_elapsed":384432,"dateTime":"2021-11-16T23:28:54.833Z","isRelevant":true},{"internal_node_id":"0.0-0.0-8.0","rt":1162.3999999761581,"response":" ","trial_type":"html-keyboard-response","stimulus":"Type all words from the first list that are ways of traveling. <br> <em>Press the space bar to continue.</em> ","time_elapsed":385596,"trial_index":8,"dateTime":"2021-11-16T23:28:55.997Z","isRelevant":false},{"trial_index":9,"internal_node_id":"0.0-0.0-9.0","response":["boat","motorcycle","truck"],"trial_type":"memory-field","stimulus":"Please type as many of the words that you heard from the first list that are ways of traveling as you can. <br> <br> <em> You can enter them in any order, just type as many of them as you can. <br> Press the enter key after each word to save your response. <br> Press stop if you are done. </em> ","time_elapsed":398014,"dateTime":"2021-11-16T23:29:08.415Z","isRelevant":true},{"internal_node_id":"0.0-0.0-10.0","rt":876.6000000238419,"response":" ","trial_type":"html-keyboard-response","stimulus":"Type all words from the first list that are animals. <br> <em>Press the space bar to continue.</em> ","time_elapsed":398893,"trial_index":10,"dateTime":"2021-11-16T23:29:09.294Z","isRelevant":false},{"trial_index":11,"internal_node_id":"0.0-0.0-11.0","response":["cow","squirrel","zebra"],"trial_type":"memory-field","stimulus":"Please type as many of the words that you heard from the first list that are animals as you can. <br> <br> <em> You can enter them in any order, just type as many of them as you can. <br> Press the enter key after each word to save your response. <br> Press stop if you are done. </em> ","time_elapsed":409342,"dateTime":"2021-11-16T23:29:19.743Z","isRelevant":true},{"ua":"Mozilla/5.0 (Windows NT 10.0; Win64; x64) AppleWebKit/537.36 (KHTML, like Gecko) Chrome/95.0.4638.69 Safari/537.36","dateTime":"2021-11-16T23:29:19.745Z","isRelevant":false},{"taskStarted":true,"dateTime":"2021-11-16T22:48:53.930Z","isRelevant":false},{"trial_index":0,"internal_node_id":"0.0-0.0-1.0-0.0","value":{"duration":66753},"trial_type":"call-function","time_elapsed":104,"dateTime":"2021-11-16T22:48:54.034Z","isRelevant":false},{"duration":66753,"trial_index":1,"internal_node_id":"0.0-0.0-1.0-1.0-0.0","trial_type":"countdown","time_elapsed":125636,"dateTime":"2021-11-16T22:50:59.566Z","isRelevant":false},{"internal_node_id":"0.0-0.0-2.0","rt":4635,"response":" ","trial_type":"html-keyboard-response","stimulus":"We presented two different lists of words to you earlier: a first list that we presented several times, and a second list that we presented you once. Type all the words you can that were from the first list. Don’t type words from the second list, just the first list. <br> <em>Press the space bar to continue.</em> ","time_elapsed":130275,"trial_index":2,"dateTime":"2021-11-16T22:51:04.205Z","isRelevant":false},{"trial_index":3,"internal_node_id":"0.0-0.0-3.0","response":["truck","subway","motorcycle","boat","giraffe","squirrel","cow","zebra","desk","bookcase","cabinet","lamp","cabbage","spinach","celery","onion"],"trial_type":"memory-field","stimulus":"Please type as many of the words that you remember from the first list as you can. <br> <br> <em> You can enter them in any order, just type as many of them as you can. <br> Press the enter key after each word to save your response. <br> Press stop if you are done. </em> ","time_elapsed":171889,"dateTime":"2021-11-16T22:51:45.819Z","isRelevant":true},{"internal_node_id":"0.0-0.0-4.0","rt":2097,"response":" ","trial_type":"html-keyboard-response","stimulus":"Type all words from the first list that are furniture. <br> <em>Press the space bar to continue.</em> ","time_elapsed":173990,"trial_index":4,"dateTime":"2021-11-16T22:51:47.921Z","isRelevant":false},{"trial_index":5,"internal_node_id":"0.0-0.0-5.0","response":[],"trial_type":"memory-field","stimulus":"Please type as many of the words that you heard from the first list that are furniture as you can. <br> <br> <em> You can enter them in any order, just type as many of them as you can. <br> Press the enter key after each word to save your response. <br> Press stop if you are done. </em> ","time_elapsed":179970,"dateTime":"2021-11-16T22:51:53.900Z","isRelevant":true},{"internal_node_id":"0.0-0.0-6.0","rt":2369,"response":" ","trial_type":"html-keyboard-response","stimulus":"Type all words from the first list that are vegetables. <br> <em>Press the space bar to continue.</em> ","time_elapsed":182344,"trial_index":6,"dateTime":"2021-11-16T22:51:56.275Z","isRelevant":false},{"trial_index":7,"internal_node_id":"0.0-0.0-7.0","response":["onion","cabbage"],"trial_type":"memory-field","stimulus":"Please type as many of the words that you heard from the first list that are vegetables as you can. <br> <br> <em> You can enter them in any order, just type as many of them as you can. <br> Press the enter key after each word to save your response. <br> Press stop if you are done. </em> ","time_elapsed":203824,"dateTime":"2021-11-16T22:52:17.754Z","isRelevant":true},{"internal_node_id":"0.0-0.0-8.0","rt":1958,"response":" ","trial_type":"html-keyboard-response","stimulus":"Type all words from the first list that are ways of traveling. <br> <em>Press the space bar to continue.</em> ","time_elapsed":205785,"trial_index":8,"dateTime":"2021-11-16T22:52:19.715Z","isRelevant":false},{"trial_index":9,"internal_node_id":"0.0-0.0-9.0","response":["subway","truck","boat","motorcycle"],"trial_type":"memory-field","stimulus":"Please type as many of the words that you heard from the first list that are ways of traveling as you can. <br> <br> <em> You can enter them in any order, just type as many of them as you can. <br> Press the enter key after each word to save your response. <br> Press stop if you are done. </em> ","time_elapsed":219614,"dateTime":"2021-11-16T22:52:33.544Z","isRelevant":true},{"internal_node_id":"0.0-0.0-10.0","rt":1838,"response":" ","trial_type":"html-keyboard-response","stimulus":"Type all words from the first list that are animals. <br> <em>Press the space bar to continue.</em> ","time_elapsed":221457,"trial_index":10,"dateTime":"2021-11-16T22:52:35.387Z","isRelevant":false},{"trial_index":11,"internal_node_id":"0.0-0.0-11.0","response":["zebra","giraffe","cow","squirrel"],"trial_type":"memory-field","stimulus":"Please type as many of the words that you heard from the first list that are animals as you can. <br> <br> <em> You can enter them in any order, just type as many of them as you can. <br> Press the enter key after each word to save your response. <br> Press stop if you are done. </em> ","time_elapsed":398320,"dateTime":"2021-11-16T22:55:32.250Z","isRelevant":true},{"ua":"Mozilla/5.0 (Macintosh; Intel Mac OS X 10.15; rv:94.0) Gecko/20100101 Firefox/94.0","dateTime":"2021-11-16T22:55:32.253Z","isRelevant":false},{"taskStarted":true,"dateTime":"2021-11-09T18:45:11.551Z","isRelevant":false},{"trial_index":0,"internal_node_id":"0.0-0.0-1.0-0.0","value":{"duration":322575},"trial_type":"call-function","time_elapsed":431,"dateTime":"2021-11-09T18:45:11.983Z","isRelevant":false},{"duration":322575,"trial_index":1,"internal_node_id":"0.0-0.0-1.0-1.0-0.0","trial_type":"countdown","time_elapsed":325056,"dateTime":"2021-11-09T18:50:36.607Z","isRelevant":false},{"internal_node_id":"0.0-0.0-2.0","rt":3953.599999964237,"response":" ","trial_type":"html-keyboard-response","stimulus":"We presented two different lists of words to you earlier: a first list that we presented several times, and a second list that we presented you once. Type all the words you can that were from the first list. Don’t type words from the second list, just the first list. <br> <em>Press the space bar to continue.</em> ","time_elapsed":329011,"trial_index":2,"dateTime":"2021-11-09T18:50:40.562Z","isRelevant":false},{"trial_index":3,"internal_node_id":"0.0-0.0-3.0","response":["truck","cabbage","onion","celery","giraffe","motorcyc;e","motorcycle","boat","zebra","cow","subway","spinach","lamp","bookshelf","desk","cabinet","squirrel"],"trial_type":"memory-field","stimulus":"Please type as many of the words that you remember from the first list as you can. <br> <br> <em> You can enter them in any order, just type as many of them as you can. <br> Press the enter key after each word to save your response. <br> Press stop if you are done. </em> ","time_elapsed":388905,"dateTime":"2021-11-09T18:51:40.456Z","isRelevant":true},{"internal_node_id":"0.0-0.0-4.0","rt":1508.3999999761581,"response":" ","trial_type":"html-keyboard-response","stimulus":"Type all words from the first list that are furniture. <br> <em>Press the space bar to continue.</em> ","time_elapsed":390414,"trial_index":4,"dateTime":"2021-11-09T18:51:41.966Z","isRelevant":false},{"trial_index":5,"internal_node_id":"0.0-0.0-5.0","response":["cabinet","lamp","desk","bookshelf"],"trial_type":"memory-field","stimulus":"Please type as many of the words that you heard from the first list that are furniture as you can. <br> <br> <em> You can enter them in any order, just type as many of them as you can. <br> Press the enter key after each word to save your response. <br> Press stop if you are done. </em> ","time_elapsed":403623,"dateTime":"2021-11-09T18:51:55.174Z","isRelevant":true},{"internal_node_id":"0.0-0.0-6.0","rt":1330,"response":" ","trial_type":"html-keyboard-response","stimulus":"Type all words from the first list that are vegetables. <br> <em>Press the space bar to continue.</em> ","time_elapsed":404955,"trial_index":6,"dateTime":"2021-11-09T18:51:56.506Z","isRelevant":false},{"trial_index":7,"internal_node_id":"0.0-0.0-7.0","response":["spinach","celery","onion","cabbage"],"trial_type":"memory-field","stimulus":"Please type as many of the words that you heard from the first list that are vegetables as you can. <br> <br> <em> You can enter them in any order, just type as many of them as you can. <br> Press the enter key after each word to save your response. <br> Press stop if you are done. </em> ","time_elapsed":416889,"dateTime":"2021-11-09T18:52:08.440Z","isRelevant":true},{"internal_node_id":"0.0-0.0-8.0","rt":1107.5,"response":" ","trial_type":"html-keyboard-response","stimulus":"Type all words from the first list that are ways of traveling. <br> <em>Press the space bar to continue.</em> ","time_elapsed":417998,"trial_index":8,"dateTime":"2021-11-09T18:52:09.549Z","isRelevant":false},{"trial_index":9,"internal_node_id":"0.0-0.0-9.0","response":["boat","truck","motorcycle","subway"],"trial_type":"memory-field","stimulus":"Please type as many of the words that you heard from the first list that are ways of traveling as you can. <br> <br> <em> You can enter them in any order, just type as many of them as you can. <br> Press the enter key after each word to save your response. <br> Press stop if you are done. </em> ","time_elapsed":431973,"dateTime":"2021-11-09T18:52:23.524Z","isRelevant":true},{"internal_node_id":"0.0-0.0-10.0","rt":1117.6000000238419,"response":" ","trial_type":"html-keyboard-response","stimulus":"Type all words from the first list that are animals. <br> <em>Press the space bar to continue.</em> ","time_elapsed":433091,"trial_index":10,"dateTime":"2021-11-09T18:52:24.643Z","isRelevant":false},{"ua":"Mozilla/5.0 (Windows NT 10.0; Win64; x64) AppleWebKit/537.36 (KHTML, like Gecko) Chrome/95.0.4638.69 Safari/537.36","dateTime":"2021-11-09T18:52:36.803Z","isRelevant":false}]
