[{"taskStarted":true,"userId":"524d2272-d17f-42aa-b335-772a7ac10972","dateTime":"2021-11-15T17:03:20.471Z","isRelevant":false},{"trial_index":0,"internal_node_id":"0.0-0.0-1.0-0.0","value":{"duration":261153},"trial_type":"call-function","time_elapsed":113,"userId":"524d2272-d17f-42aa-b335-772a7ac10972","dateTime":"2021-11-15T17:03:20.584Z","isRelevant":false},{"duration":261153,"trial_index":1,"internal_node_id":"0.0-0.0-1.0-1.0-0.0","trial_type":"countdown","time_elapsed":263673,"userId":"524d2272-d17f-42aa-b335-772a7ac10972","dateTime":"2021-11-15T17:07:44.144Z","isRelevant":false},{"internal_node_id":"0.0-0.0-2.0","rt":13053,"response":" ","trial_type":"html-keyboard-response","stimulus":"We presented two different lists of words to you earlier: a first list that we presented several times, and a second list that we presented you once. Type all the words you can that were from the first list. Don’t type words from the second list, just the first list. <br> <em>Press the space bar to continue.</em> ","time_elapsed":276728,"trial_index":2,"userId":"524d2272-d17f-42aa-b335-772a7ac10972","dateTime":"2021-11-15T17:07:57.199Z","isRelevant":false},{"trial_index":3,"internal_node_id":"0.0-0.0-3.0","response":[],"trial_type":"memory-field","stimulus":"Please type as many of the words that you remember from the first list as you can. <br> <br> <em> You can enter them in any order, just type as many of them as you can. <br> Press the enter key after each word to save your response. <br> Press stop if you are done. </em> ","time_elapsed":403724,"userId":"524d2272-d17f-42aa-b335-772a7ac10972","dateTime":"2021-11-15T17:10:04.195Z","isRelevant":true},{"internal_node_id":"0.0-0.0-4.0","rt":6885,"response":" ","trial_type":"html-keyboard-response","stimulus":"Type all words from the first list that are furniture. <br> <em>Press the space bar to continue.</em> ","time_elapsed":410612,"trial_index":4,"userId":"524d2272-d17f-42aa-b335-772a7ac10972","dateTime":"2021-11-15T17:10:11.083Z","isRelevant":false},{"trial_index":5,"internal_node_id":"0.0-0.0-5.0","response":[],"trial_type":"memory-field","stimulus":"Please type as many of the words that you heard from the first list that are furniture as you can. <br> <br> <em> You can enter them in any order, just type as many of them as you can. <br> Press the enter key after each word to save your response. <br> Press stop if you are done. </em> ","time_elapsed":444011,"userId":"524d2272-d17f-42aa-b335-772a7ac10972","dateTime":"2021-11-15T17:10:44.482Z","isRelevant":true},{"internal_node_id":"0.0-0.0-6.0","rt":3144,"response":" ","trial_type":"html-keyboard-response","stimulus":"Type all words from the first list that are vegetables. <br> <em>Press the space bar to continue.</em> ","time_elapsed":447157,"trial_index":6,"userId":"524d2272-d17f-42aa-b335-772a7ac10972","dateTime":"2021-11-15T17:10:47.628Z","isRelevant":false},{"trial_index":7,"internal_node_id":"0.0-0.0-7.0","response":[],"trial_type":"memory-field","stimulus":"Please type as many of the words that you heard from the first list that are vegetables as you can. <br> <br> <em> You can enter them in any order, just type as many of them as you can. <br> Press the enter key after each word to save your response. <br> Press stop if you are done. </em> ","time_elapsed":468715,"userId":"524d2272-d17f-42aa-b335-772a7ac10972","dateTime":"2021-11-15T17:11:09.186Z","isRelevant":true},{"internal_node_id":"0.0-0.0-8.0","rt":3761,"response":" ","trial_type":"html-keyboard-response","stimulus":"Type all words from the first list that are ways of traveling. <br> <em>Press the space bar to continue.</em> ","time_elapsed":472477,"trial_index":8,"userId":"524d2272-d17f-42aa-b335-772a7ac10972","dateTime":"2021-11-15T17:11:12.948Z","isRelevant":false},{"trial_index":9,"internal_node_id":"0.0-0.0-9.0","response":[],"trial_type":"memory-field","stimulus":"Please type as many of the words that you heard from the first list that are ways of traveling as you can. <br> <br> <em> You can enter them in any order, just type as many of them as you can. <br> Press the enter key after each word to save your response. <br> Press stop if you are done. </em> ","time_elapsed":495840,"userId":"524d2272-d17f-42aa-b335-772a7ac10972","dateTime":"2021-11-15T17:11:36.311Z","isRelevant":true},{"internal_node_id":"0.0-0.0-10.0","rt":3814,"response":" ","trial_type":"html-keyboard-response","stimulus":"Type all words from the first list that are animals. <br> <em>Press the space bar to continue.</em> ","time_elapsed":499654,"trial_index":10,"userId":"524d2272-d17f-42aa-b335-772a7ac10972","dateTime":"2021-11-15T17:11:40.125Z","isRelevant":false},{"ua":"Mozilla/5.0 (Macintosh; Intel Mac OS X 10.15; rv:94.0) Gecko/20100101 Firefox/94.0","userId":"524d2272-d17f-42aa-b335-772a7ac10972","dateTime":"2021-11-15T17:12:32.167Z","isRelevant":false},{"taskStarted":true,"userId":"b07d920b-a11a-422a-a359-694608c3cd00","dateTime":"2021-11-22T01:27:06.423Z","isRelevant":false},{"trial_index":0,"internal_node_id":"0.0-0.0-1.0-0.0","value":{"duration":251307},"trial_type":"call-function","time_elapsed":181,"userId":"b07d920b-a11a-422a-a359-694608c3cd00","dateTime":"2021-11-22T01:27:06.604Z","isRelevant":false},{"duration":251307,"trial_index":1,"internal_node_id":"0.0-0.0-1.0-1.0-0.0","trial_type":"countdown","time_elapsed":260986,"userId":"b07d920b-a11a-422a-a359-694608c3cd00","dateTime":"2021-11-22T01:31:27.409Z","isRelevant":false},{"internal_node_id":"0.0-0.0-2.0","rt":10293.699999928474,"response":" ","trial_type":"html-keyboard-response","stimulus":"We presented two different lists of words to you earlier: a first list that we presented several times, and a second list that we presented you once. Type all the words you can that were from the first list. Don’t type words from the second list, just the first list. <br> <em>Press the space bar to continue.</em> ","time_elapsed":271281,"trial_index":2,"userId":"b07d920b-a11a-422a-a359-694608c3cd00","dateTime":"2021-11-22T01:31:37.704Z","isRelevant":false},{"trial_index":3,"internal_node_id":"0.0-0.0-3.0","response":["truck","subway","motorcycle","boat","celery","onion","cabbage","spinach","desk","cabinet","bookcase","lamp","squirrel","cow","zebra","giraffe"],"trial_type":"memory-field","stimulus":"Please type as many of the words that you remember from the first list as you can. <br> <br> <em> You can enter them in any order, just type as many of them as you can. <br> Press the enter key after each word to save your response. <br> Press stop if you are done. </em> ","time_elapsed":340052,"userId":"b07d920b-a11a-422a-a359-694608c3cd00","dateTime":"2021-11-22T01:32:46.475Z","isRelevant":true},{"internal_node_id":"0.0-0.0-4.0","rt":2816.1999999284744,"response":" ","trial_type":"html-keyboard-response","stimulus":"Type all words from the first list that are furniture. <br> <em>Press the space bar to continue.</em> ","time_elapsed":342870,"trial_index":4,"userId":"b07d920b-a11a-422a-a359-694608c3cd00","dateTime":"2021-11-22T01:32:49.293Z","isRelevant":false},{"trial_index":5,"internal_node_id":"0.0-0.0-5.0","response":["desk","lamp","bookcase","cabinet"],"trial_type":"memory-field","stimulus":"Please type as many of the words that you heard from the first list that are furniture as you can. <br> <br> <em> You can enter them in any order, just type as many of them as you can. <br> Press the enter key after each word to save your response. <br> Press stop if you are done. </em> ","time_elapsed":359346,"userId":"b07d920b-a11a-422a-a359-694608c3cd00","dateTime":"2021-11-22T01:33:05.769Z","isRelevant":true},{"internal_node_id":"0.0-0.0-6.0","rt":1101.2000000476837,"response":" ","trial_type":"html-keyboard-response","stimulus":"Type all words from the first list that are vegetables. <br> <em>Press the space bar to continue.</em> ","time_elapsed":360448,"trial_index":6,"userId":"b07d920b-a11a-422a-a359-694608c3cd00","dateTime":"2021-11-22T01:33:06.871Z","isRelevant":false},{"trial_index":7,"internal_node_id":"0.0-0.0-7.0","response":["spinach","cabbage","celery","onion"],"trial_type":"memory-field","stimulus":"Please type as many of the words that you heard from the first list that are vegetables as you can. <br> <br> <em> You can enter them in any order, just type as many of them as you can. <br> Press the enter key after each word to save your response. <br> Press stop if you are done. </em> ","time_elapsed":377518,"userId":"b07d920b-a11a-422a-a359-694608c3cd00","dateTime":"2021-11-22T01:33:23.941Z","isRelevant":true},{"internal_node_id":"0.0-0.0-8.0","rt":1752.8999999761581,"response":" ","trial_type":"html-keyboard-response","stimulus":"Type all words from the first list that are ways of traveling. <br> <em>Press the space bar to continue.</em> ","time_elapsed":379272,"trial_index":8,"userId":"b07d920b-a11a-422a-a359-694608c3cd00","dateTime":"2021-11-22T01:33:25.695Z","isRelevant":false},{"trial_index":9,"internal_node_id":"0.0-0.0-9.0","response":["truck","motocycle","boat","subway"],"trial_type":"memory-field","stimulus":"Please type as many of the words that you heard from the first list that are ways of traveling as you can. <br> <br> <em> You can enter them in any order, just type as many of them as you can. <br> Press the enter key after each word to save your response. <br> Press stop if you are done. </em> ","time_elapsed":398769,"userId":"b07d920b-a11a-422a-a359-694608c3cd00","dateTime":"2021-11-22T01:33:45.192Z","isRelevant":true},{"internal_node_id":"0.0-0.0-10.0","rt":2189.6999999284744,"response":" ","trial_type":"html-keyboard-response","stimulus":"Type all words from the first list that are animals. <br> <em>Press the space bar to continue.</em> ","time_elapsed":400960,"trial_index":10,"userId":"b07d920b-a11a-422a-a359-694608c3cd00","dateTime":"2021-11-22T01:33:47.383Z","isRelevant":false},{"trial_index":11,"internal_node_id":"0.0-0.0-11.0","response":["squirrel","cow","zebra","giraffe"],"trial_type":"memory-field","stimulus":"Please type as many of the words that you heard from the first list that are animals as you can. <br> <br> <em> You can enter them in any order, just type as many of them as you can. <br> Press the enter key after each word to save your response. <br> Press stop if you are done. </em> ","time_elapsed":412506,"userId":"b07d920b-a11a-422a-a359-694608c3cd00","dateTime":"2021-11-22T01:33:58.929Z","isRelevant":true},{"ua":"Mozilla/5.0 (Macintosh; Intel Mac OS X 10_15_7) AppleWebKit/537.36 (KHTML, like Gecko) Chrome/95.0.4638.54 Safari/537.36","userId":"b07d920b-a11a-422a-a359-694608c3cd00","dateTime":"2021-11-22T01:33:58.930Z","isRelevant":false},{"taskStarted":true,"userId":"1e7afe8d-bc84-463f-bd6e-c9bd987464be","dateTime":"2021-11-19T11:47:16.730Z","isRelevant":false},{"trial_index":0,"internal_node_id":"0.0-0.0-1.0-0.0","value":{"duration":-188305},"trial_type":"call-function","time_elapsed":883,"userId":"1e7afe8d-bc84-463f-bd6e-c9bd987464be","dateTime":"2021-11-19T11:47:17.613Z","isRelevant":false},{"internal_node_id":"0.0-0.0-2.0","rt":11015,"response":" ","trial_type":"html-keyboard-response","stimulus":"We presented two different lists of words to you earlier: a first list that we presented several times, and a second list that we presented you once. Type all the words you can that were from the first list. Don’t type words from the second list, just the first list. <br> <em>Press the space bar to continue.</em> ","time_elapsed":11898,"trial_index":1,"userId":"1e7afe8d-bc84-463f-bd6e-c9bd987464be","dateTime":"2021-11-19T11:47:28.628Z","isRelevant":false},{"trial_index":2,"internal_node_id":"0.0-0.0-3.0","response":["cabbage","spinach","celery","onion","spinach","bookcase","cabinet","desk","lamp","cow","zebra","squirrel","giraffe","motorcycle","boat","truck","subway"],"trial_type":"memory-field","stimulus":"Please type as many of the words that you remember from the first list as you can. <br> <br> <em> You can enter them in any order, just type as many of them as you can. <br> Press the enter key after each word to save your response. <br> Press stop if you are done. </em> ","time_elapsed":117234,"userId":"1e7afe8d-bc84-463f-bd6e-c9bd987464be","dateTime":"2021-11-19T11:49:13.964Z","isRelevant":true},{"internal_node_id":"0.0-0.0-4.0","rt":1887,"response":" ","trial_type":"html-keyboard-response","stimulus":"Type all words from the first list that are furniture. <br> <em>Press the space bar to continue.</em> ","time_elapsed":119130,"trial_index":3,"userId":"1e7afe8d-bc84-463f-bd6e-c9bd987464be","dateTime":"2021-11-19T11:49:15.860Z","isRelevant":false},{"trial_index":4,"internal_node_id":"0.0-0.0-5.0","response":["desk","lamp","cabinet","bookcase"],"trial_type":"memory-field","stimulus":"Please type as many of the words that you heard from the first list that are furniture as you can. <br> <br> <em> You can enter them in any order, just type as many of them as you can. <br> Press the enter key after each word to save your response. <br> Press stop if you are done. </em> ","time_elapsed":138937,"userId":"1e7afe8d-bc84-463f-bd6e-c9bd987464be","dateTime":"2021-11-19T11:49:35.667Z","isRelevant":true},{"internal_node_id":"0.0-0.0-6.0","rt":12282,"response":" ","trial_type":"html-keyboard-response","stimulus":"Type all words from the first list that are vegetables. <br> <em>Press the space bar to continue.</em> ","time_elapsed":151228,"trial_index":5,"userId":"1e7afe8d-bc84-463f-bd6e-c9bd987464be","dateTime":"2021-11-19T11:49:47.958Z","isRelevant":false},{"trial_index":6,"internal_node_id":"0.0-0.0-7.0","response":["celery","spinach","onion","cabbage"],"trial_type":"memory-field","stimulus":"Please type as many of the words that you heard from the first list that are vegetables as you can. <br> <br> <em> You can enter them in any order, just type as many of them as you can. <br> Press the enter key after each word to save your response. <br> Press stop if you are done. </em> ","time_elapsed":190930,"userId":"1e7afe8d-bc84-463f-bd6e-c9bd987464be","dateTime":"2021-11-19T11:50:27.660Z","isRelevant":true},{"internal_node_id":"0.0-0.0-8.0","rt":2821,"response":" ","trial_type":"html-keyboard-response","stimulus":"Type all words from the first list that are ways of traveling. <br> <em>Press the space bar to continue.</em> ","time_elapsed":193754,"trial_index":7,"userId":"1e7afe8d-bc84-463f-bd6e-c9bd987464be","dateTime":"2021-11-19T11:50:30.484Z","isRelevant":false},{"trial_index":8,"internal_node_id":"0.0-0.0-9.0","response":["truck","boat","subway","motorcycle"],"trial_type":"memory-field","stimulus":"Please type as many of the words that you heard from the first list that are ways of traveling as you can. <br> <br> <em> You can enter them in any order, just type as many of them as you can. <br> Press the enter key after each word to save your response. <br> Press stop if you are done. </em> ","time_elapsed":215450,"userId":"1e7afe8d-bc84-463f-bd6e-c9bd987464be","dateTime":"2021-11-19T11:50:52.180Z","isRelevant":true},{"internal_node_id":"0.0-0.0-10.0","rt":1962,"response":" ","trial_type":"html-keyboard-response","stimulus":"Type all words from the first list that are animals. <br> <em>Press the space bar to continue.</em> ","time_elapsed":217418,"trial_index":9,"userId":"1e7afe8d-bc84-463f-bd6e-c9bd987464be","dateTime":"2021-11-19T11:50:54.148Z","isRelevant":false},{"trial_index":10,"internal_node_id":"0.0-0.0-11.0","response":["squirrel","zebra","cow","giraffe"],"trial_type":"memory-field","stimulus":"Please type as many of the words that you heard from the first list that are animals as you can. <br> <br> <em> You can enter them in any order, just type as many of them as you can. <br> Press the enter key after each word to save your response. <br> Press stop if you are done. </em> ","time_elapsed":230634,"userId":"1e7afe8d-bc84-463f-bd6e-c9bd987464be","dateTime":"2021-11-19T11:51:07.364Z","isRelevant":true},{"ua":"Mozilla/5.0 (Windows NT 10.0; Win64; x64; rv:91.0) Gecko/20100101 Firefox/91.0","userId":"1e7afe8d-bc84-463f-bd6e-c9bd987464be","dateTime":"2021-11-19T11:51:07.365Z","isRelevant":false},{"taskStarted":true,"userId":"165fd106-8a5c-4705-8441-3beaa87dbda4","dateTime":"2021-11-18T17:27:34.805Z","isRelevant":false},{"trial_index":0,"internal_node_id":"0.0-0.0-1.0-0.0","value":{"duration":213469},"trial_type":"call-function","time_elapsed":207,"userId":"165fd106-8a5c-4705-8441-3beaa87dbda4","dateTime":"2021-11-18T17:27:35.007Z","isRelevant":false},{"duration":213469,"trial_index":1,"internal_node_id":"0.0-0.0-1.0-1.0-0.0","trial_type":"countdown","time_elapsed":217499,"userId":"165fd106-8a5c-4705-8441-3beaa87dbda4","dateTime":"2021-11-18T17:31:12.310Z","isRelevant":false},{"internal_node_id":"0.0-0.0-2.0","rt":8440,"response":" ","trial_type":"html-keyboard-response","stimulus":"We presented two different lists of words to you earlier: a first list that we presented several times, and a second list that we presented you once. Type all the words you can that were from the first list. Don’t type words from the second list, just the first list. <br> <em>Press the space bar to continue.</em> ","time_elapsed":226062,"trial_index":2,"userId":"165fd106-8a5c-4705-8441-3beaa87dbda4","dateTime":"2021-11-18T17:31:20.862Z","isRelevant":false},{"trial_index":3,"internal_node_id":"0.0-0.0-3.0","response":["truck","boat","motorcycle","subway","giraffe","cow","zebra","squirrel","onion","spinach","cabbage","celery","bookcase","desk","lamp","cabinet"],"trial_type":"memory-field","stimulus":"Please type as many of the words that you remember from the first list as you can. <br> <br> <em> You can enter them in any order, just type as many of them as you can. <br> Press the enter key after each word to save your response. <br> Press stop if you are done. </em> ","time_elapsed":336384,"userId":"165fd106-8a5c-4705-8441-3beaa87dbda4","dateTime":"2021-11-18T17:33:11.185Z","isRelevant":true},{"internal_node_id":"0.0-0.0-4.0","rt":2665.0000000004657,"response":" ","trial_type":"html-keyboard-response","stimulus":"Type all words from the first list that are furniture. <br> <em>Press the space bar to continue.</em> ","time_elapsed":339110,"trial_index":4,"userId":"165fd106-8a5c-4705-8441-3beaa87dbda4","dateTime":"2021-11-18T17:33:13.909Z","isRelevant":false},{"trial_index":5,"internal_node_id":"0.0-0.0-5.0","response":["bookcase","desk","cabinet","lamp","desk"],"trial_type":"memory-field","stimulus":"Please type as many of the words that you heard from the first list that are furniture as you can. <br> <br> <em> You can enter them in any order, just type as many of them as you can. <br> Press the enter key after each word to save your response. <br> Press stop if you are done. </em> ","time_elapsed":359187,"userId":"165fd106-8a5c-4705-8441-3beaa87dbda4","dateTime":"2021-11-18T17:33:33.987Z","isRelevant":true},{"internal_node_id":"0.0-0.0-6.0","rt":1915,"response":" ","trial_type":"html-keyboard-response","stimulus":"Type all words from the first list that are vegetables. <br> <em>Press the space bar to continue.</em> ","time_elapsed":361118,"trial_index":6,"userId":"165fd106-8a5c-4705-8441-3beaa87dbda4","dateTime":"2021-11-18T17:33:35.918Z","isRelevant":false},{"trial_index":7,"internal_node_id":"0.0-0.0-7.0","response":["celery","onion","spinach","cabbage"],"trial_type":"memory-field","stimulus":"Please type as many of the words that you heard from the first list that are vegetables as you can. <br> <br> <em> You can enter them in any order, just type as many of them as you can. <br> Press the enter key after each word to save your response. <br> Press stop if you are done. </em> ","time_elapsed":370444,"userId":"165fd106-8a5c-4705-8441-3beaa87dbda4","dateTime":"2021-11-18T17:33:45.244Z","isRelevant":true},{"internal_node_id":"0.0-0.0-8.0","rt":1484,"response":" ","trial_type":"html-keyboard-response","stimulus":"Type all words from the first list that are ways of traveling. <br> <em>Press the space bar to continue.</em> ","time_elapsed":371944,"trial_index":8,"userId":"165fd106-8a5c-4705-8441-3beaa87dbda4","dateTime":"2021-11-18T17:33:46.744Z","isRelevant":false},{"trial_index":9,"internal_node_id":"0.0-0.0-9.0","response":["motorcycle","subway","boat","truck"],"trial_type":"memory-field","stimulus":"Please type as many of the words that you heard from the first list that are ways of traveling as you can. <br> <br> <em> You can enter them in any order, just type as many of them as you can. <br> Press the enter key after each word to save your response. <br> Press stop if you are done. </em> ","time_elapsed":397269,"userId":"165fd106-8a5c-4705-8441-3beaa87dbda4","dateTime":"2021-11-18T17:34:12.069Z","isRelevant":true},{"internal_node_id":"0.0-0.0-10.0","rt":1036,"response":" ","trial_type":"html-keyboard-response","stimulus":"Type all words from the first list that are animals. <br> <em>Press the space bar to continue.</em> ","time_elapsed":398327,"trial_index":10,"userId":"165fd106-8a5c-4705-8441-3beaa87dbda4","dateTime":"2021-11-18T17:34:13.126Z","isRelevant":false},{"trial_index":11,"internal_node_id":"0.0-0.0-11.0","response":["giraffe","cow","zebra","squirrel"],"trial_type":"memory-field","stimulus":"Please type as many of the words that you heard from the first list that are animals as you can. <br> <br> <em> You can enter them in any order, just type as many of them as you can. <br> Press the enter key after each word to save your response. <br> Press stop if you are done. </em> ","time_elapsed":409264,"userId":"165fd106-8a5c-4705-8441-3beaa87dbda4","dateTime":"2021-11-18T17:34:24.064Z","isRelevant":true},{"ua":"Mozilla/5.0 (Macintosh; Intel Mac OS X 10_15_7) AppleWebKit/605.1.15 (KHTML, like Gecko) Version/15.0 Safari/605.1.15","userId":"165fd106-8a5c-4705-8441-3beaa87dbda4","dateTime":"2021-11-18T17:34:24.080Z","isRelevant":false},{"taskStarted":true,"userId":"a39c0907-29e6-4c85-9188-b21b04ca17a6","dateTime":"2021-11-08T19:27:30.810Z","isRelevant":false},{"trial_index":0,"internal_node_id":"0.0-0.0-1.0-0.0","value":{"duration":269077},"trial_type":"call-function","time_elapsed":193,"userId":"a39c0907-29e6-4c85-9188-b21b04ca17a6","dateTime":"2021-11-08T19:27:31.002Z","isRelevant":false},{"duration":269077,"trial_index":1,"internal_node_id":"0.0-0.0-1.0-1.0-0.0","trial_type":"countdown","time_elapsed":279647,"userId":"a39c0907-29e6-4c85-9188-b21b04ca17a6","dateTime":"2021-11-08T19:32:10.456Z","isRelevant":false},{"internal_node_id":"0.0-0.0-2.0","rt":2700.300000190735,"response":" ","trial_type":"html-keyboard-response","stimulus":"We presented two different lists of words to you earlier: a first list that we presented several times, and a second list that we presented you once. Type all the words you can that were from the first list. Don’t type words from the second list, just the first list. <br> <em>Press the space bar to continue.</em> ","time_elapsed":282349,"trial_index":2,"userId":"a39c0907-29e6-4c85-9188-b21b04ca17a6","dateTime":"2021-11-08T19:32:13.158Z","isRelevant":false},{"trial_index":3,"internal_node_id":"0.0-0.0-3.0","response":["cabinet","bookcase","lamp","desk","squirrel","cow","zebra","celery","cabbage","onion","truck","boat","subway"],"trial_type":"memory-field","stimulus":"Please type as many of the words that you remember from the first list as you can. <br> <br> <em> You can enter them in any order, just type as many of them as you can. <br> Press the enter key after each word to save your response. <br> Press stop if you are done. </em> ","time_elapsed":317306,"userId":"a39c0907-29e6-4c85-9188-b21b04ca17a6","dateTime":"2021-11-08T19:32:48.115Z","isRelevant":true},{"internal_node_id":"0.0-0.0-4.0","rt":1973.8000001907349,"response":" ","trial_type":"html-keyboard-response","stimulus":"Type all words from the first list that are furniture. <br> <em>Press the space bar to continue.</em> ","time_elapsed":319282,"trial_index":4,"userId":"a39c0907-29e6-4c85-9188-b21b04ca17a6","dateTime":"2021-11-08T19:32:50.092Z","isRelevant":false},{"trial_index":5,"internal_node_id":"0.0-0.0-5.0","response":["desk","lamp","bookcase","cabinet"],"trial_type":"memory-field","stimulus":"Please type as many of the words that you heard from the first list that are furniture as you can. <br> <br> <em> You can enter them in any order, just type as many of them as you can. <br> Press the enter key after each word to save your response. <br> Press stop if you are done. </em> ","time_elapsed":325896,"userId":"a39c0907-29e6-4c85-9188-b21b04ca17a6","dateTime":"2021-11-08T19:32:56.705Z","isRelevant":true},{"internal_node_id":"0.0-0.0-6.0","rt":1566.5999999046326,"response":" ","trial_type":"html-keyboard-response","stimulus":"Type all words from the first list that are vegetables. <br> <em>Press the space bar to continue.</em> ","time_elapsed":327466,"trial_index":6,"userId":"a39c0907-29e6-4c85-9188-b21b04ca17a6","dateTime":"2021-11-08T19:32:58.275Z","isRelevant":false},{"trial_index":7,"internal_node_id":"0.0-0.0-7.0","response":["celery","onion","cabbage"],"trial_type":"memory-field","stimulus":"Please type as many of the words that you heard from the first list that are vegetables as you can. <br> <br> <em> You can enter them in any order, just type as many of them as you can. <br> Press the enter key after each word to save your response. <br> Press stop if you are done. </em> ","time_elapsed":346181,"userId":"a39c0907-29e6-4c85-9188-b21b04ca17a6","dateTime":"2021-11-08T19:33:16.990Z","isRelevant":true},{"internal_node_id":"0.0-0.0-8.0","rt":778.6999998092651,"response":" ","trial_type":"html-keyboard-response","stimulus":"Type all words from the first list that are ways of traveling. <br> <em>Press the space bar to continue.</em> ","time_elapsed":346963,"trial_index":8,"userId":"a39c0907-29e6-4c85-9188-b21b04ca17a6","dateTime":"2021-11-08T19:33:17.772Z","isRelevant":false},{"trial_index":9,"internal_node_id":"0.0-0.0-9.0","response":["subway","boat","truck","subway"],"trial_type":"memory-field","stimulus":"Please type as many of the words that you heard from the first list that are ways of traveling as you can. <br> <br> <em> You can enter them in any order, just type as many of them as you can. <br> Press the enter key after each word to save your response. <br> Press stop if you are done. </em> ","time_elapsed":356328,"userId":"a39c0907-29e6-4c85-9188-b21b04ca17a6","dateTime":"2021-11-08T19:33:27.137Z","isRelevant":true},{"internal_node_id":"0.0-0.0-10.0","rt":938.5,"response":" ","trial_type":"html-keyboard-response","stimulus":"Type all words from the first list that are animals. <br> <em>Press the space bar to continue.</em> ","time_elapsed":357268,"trial_index":10,"userId":"a39c0907-29e6-4c85-9188-b21b04ca17a6","dateTime":"2021-11-08T19:33:28.077Z","isRelevant":false},{"trial_index":11,"internal_node_id":"0.0-0.0-11.0","response":["squirrel","zebra","giraffe"],"trial_type":"memory-field","stimulus":"Please type as many of the words that you heard from the first list that are animals as you can. <br> <br> <em> You can enter them in any order, just type as many of them as you can. <br> Press the enter key after each word to save your response. <br> Press stop if you are done. </em> ","time_elapsed":364119,"userId":"a39c0907-29e6-4c85-9188-b21b04ca17a6","dateTime":"2021-11-08T19:33:34.929Z","isRelevant":true},{"ua":"Mozilla/5.0 (Macintosh; Intel Mac OS X 10_15_7) AppleWebKit/537.36 (KHTML, like Gecko) Chrome/95.0.4638.69 Safari/537.36","userId":"a39c0907-29e6-4c85-9188-b21b04ca17a6","dateTime":"2021-11-08T19:33:34.930Z","isRelevant":false},{"taskStarted":true,"userId":"792390ab-56ba-47a8-8c3c-1ea452762f1c","dateTime":"2021-11-15T06:47:23.874Z","isRelevant":false},{"trial_index":0,"internal_node_id":"0.0-0.0-1.0-0.0","value":{"duration":237616},"trial_type":"call-function","time_elapsed":286,"userId":"792390ab-56ba-47a8-8c3c-1ea452762f1c","dateTime":"2021-11-15T06:47:24.160Z","isRelevant":false},{"duration":237616,"trial_index":1,"internal_node_id":"0.0-0.0-1.0-1.0-0.0","trial_type":"countdown","time_elapsed":252592,"userId":"792390ab-56ba-47a8-8c3c-1ea452762f1c","dateTime":"2021-11-15T06:51:36.466Z","isRelevant":false},{"internal_node_id":"0.0-0.0-2.0","rt":5468,"response":" ","trial_type":"html-keyboard-response","stimulus":"We presented two different lists of words to you earlier: a first list that we presented several times, and a second list that we presented you once. Type all the words you can that were from the first list. Don’t type words from the second list, just the first list. <br> <em>Press the space bar to continue.</em> ","time_elapsed":258066,"trial_index":2,"userId":"792390ab-56ba-47a8-8c3c-1ea452762f1c","dateTime":"2021-11-15T06:51:41.940Z","isRelevant":false},{"trial_index":3,"internal_node_id":"0.0-0.0-3.0","response":["cabbage","celery","onion","spinach","bookcase","desk","lamp","cabinet","zebra","giraffe","cow","squirrel","subway","truck","boat","motorcycle"],"trial_type":"memory-field","stimulus":"Please type as many of the words that you remember from the first list as you can. <br> <br> <em> You can enter them in any order, just type as many of them as you can. <br> Press the enter key after each word to save your response. <br> Press stop if you are done. </em> ","time_elapsed":289133,"userId":"792390ab-56ba-47a8-8c3c-1ea452762f1c","dateTime":"2021-11-15T06:52:13.007Z","isRelevant":true},{"internal_node_id":"0.0-0.0-4.0","rt":1696,"response":" ","trial_type":"html-keyboard-response","stimulus":"Type all words from the first list that are furniture. <br> <em>Press the space bar to continue.</em> ","time_elapsed":290844,"trial_index":4,"userId":"792390ab-56ba-47a8-8c3c-1ea452762f1c","dateTime":"2021-11-15T06:52:14.718Z","isRelevant":false},{"trial_index":5,"internal_node_id":"0.0-0.0-5.0","response":["desk","lamp","cabinet","bookcase"],"trial_type":"memory-field","stimulus":"Please type as many of the words that you heard from the first list that are furniture as you can. <br> <br> <em> You can enter them in any order, just type as many of them as you can. <br> Press the enter key after each word to save your response. <br> Press stop if you are done. </em> ","time_elapsed":298671,"userId":"792390ab-56ba-47a8-8c3c-1ea452762f1c","dateTime":"2021-11-15T06:52:22.545Z","isRelevant":true},{"internal_node_id":"0.0-0.0-6.0","rt":893.3999999761581,"response":" ","trial_type":"html-keyboard-response","stimulus":"Type all words from the first list that are vegetables. <br> <em>Press the space bar to continue.</em> ","time_elapsed":299576,"trial_index":6,"userId":"792390ab-56ba-47a8-8c3c-1ea452762f1c","dateTime":"2021-11-15T06:52:23.450Z","isRelevant":false},{"trial_index":7,"internal_node_id":"0.0-0.0-7.0","response":["celery","cabbage","onion","spinach"],"trial_type":"memory-field","stimulus":"Please type as many of the words that you heard from the first list that are vegetables as you can. <br> <br> <em> You can enter them in any order, just type as many of them as you can. <br> Press the enter key after each word to save your response. <br> Press stop if you are done. </em> ","time_elapsed":312948,"userId":"792390ab-56ba-47a8-8c3c-1ea452762f1c","dateTime":"2021-11-15T06:52:36.822Z","isRelevant":true},{"internal_node_id":"0.0-0.0-8.0","rt":848,"response":" ","trial_type":"html-keyboard-response","stimulus":"Type all words from the first list that are ways of traveling. <br> <em>Press the space bar to continue.</em> ","time_elapsed":313804,"trial_index":8,"userId":"792390ab-56ba-47a8-8c3c-1ea452762f1c","dateTime":"2021-11-15T06:52:37.678Z","isRelevant":false},{"trial_index":9,"internal_node_id":"0.0-0.0-9.0","response":["boat","truck","subway","motorcycle"],"trial_type":"memory-field","stimulus":"Please type as many of the words that you heard from the first list that are ways of traveling as you can. <br> <br> <em> You can enter them in any order, just type as many of them as you can. <br> Press the enter key after each word to save your response. <br> Press stop if you are done. </em> ","time_elapsed":331811,"userId":"792390ab-56ba-47a8-8c3c-1ea452762f1c","dateTime":"2021-11-15T06:52:55.685Z","isRelevant":true},{"internal_node_id":"0.0-0.0-10.0","rt":772,"response":" ","trial_type":"html-keyboard-response","stimulus":"Type all words from the first list that are animals. <br> <em>Press the space bar to continue.</em> ","time_elapsed":332591,"trial_index":10,"userId":"792390ab-56ba-47a8-8c3c-1ea452762f1c","dateTime":"2021-11-15T06:52:56.465Z","isRelevant":false},{"trial_index":11,"internal_node_id":"0.0-0.0-11.0","response":["squirrel","cow","zebra","giraffe"],"trial_type":"memory-field","stimulus":"Please type as many of the words that you heard from the first list that are animals as you can. <br> <br> <em> You can enter them in any order, just type as many of them as you can. <br> Press the enter key after each word to save your response. <br> Press stop if you are done. </em> ","time_elapsed":341249,"userId":"792390ab-56ba-47a8-8c3c-1ea452762f1c","dateTime":"2021-11-15T06:53:05.123Z","isRelevant":true},{"ua":"Mozilla/5.0 (Windows NT 10.0; Win64; x64) AppleWebKit/537.36 (KHTML, like Gecko) Chrome/95.0.4638.69 Safari/537.36 Edg/95.0.1020.53","userId":"792390ab-56ba-47a8-8c3c-1ea452762f1c","dateTime":"2021-11-15T06:53:05.135Z","isRelevant":false},{"taskStarted":true,"userId":"ed732f11-6a56-4990-9a8d-9465c81770fb","dateTime":"2021-11-17T16:25:43.972Z","isRelevant":false},{"internal_node_id":"0.0-0.0-0.0-0.0","success":true,"trial_type":"fullscreen","failed_images":[],"time_elapsed":116,"trial_index":0,"failed_audio":[],"failed_video":[],"timeout":false,"userId":"ed732f11-6a56-4990-9a8d-9465c81770fb","dateTime":"2021-11-17T16:25:44.088Z","isRelevant":false},{"trial_index":1,"internal_node_id":"0.0-0.0-1.0-0.0","value":{"duration":-1637165144204},"trial_type":"call-function","time_elapsed":232,"userId":"ed732f11-6a56-4990-9a8d-9465c81770fb","dateTime":"2021-11-17T16:25:44.205Z","isRelevant":false},{"internal_node_id":"0.0-0.0-2.0","rt":4759,"response":" ","trial_type":"html-keyboard-response","stimulus":"We presented two different lists of words to you earlier: a first list that we presented several times, and a second list that we presented you once.\nType all the words you can that were from the first list.\nDon’t type words from the second list, just the first list. <br>\n<em>Press the space bar to continue.</em>\n","time_elapsed":4999,"trial_index":2,"userId":"ed732f11-6a56-4990-9a8d-9465c81770fb","dateTime":"2021-11-17T16:25:48.971Z","isRelevant":false},{"trial_index":3,"internal_node_id":"0.0-0.0-3.0","response":["foo"],"trial_type":"memory-field","stimulus":"Please type as many of the words that you remember from the first list as you can. <br>\n<br>\n<em>\n    You can enter them in any order, just type as many of them as you can. <br>\n    Press the enter key after each word to save your response. <br>\n    Press stop if you are done.\n</em>\n","time_elapsed":12585,"userId":"ed732f11-6a56-4990-9a8d-9465c81770fb","dateTime":"2021-11-17T16:25:56.558Z","isRelevant":true},{"internal_node_id":"0.0-0.0-4.0","rt":2399,"response":" ","trial_type":"html-keyboard-response","stimulus":"Type all words from the first list that are furniture. <br>\n<em>Press the space bar to continue.</em>\n","time_elapsed":14991,"trial_index":4,"userId":"ed732f11-6a56-4990-9a8d-9465c81770fb","dateTime":"2021-11-17T16:25:58.963Z","isRelevant":false},{"trial_index":5,"internal_node_id":"0.0-0.0-5.0","response":["bar"],"trial_type":"memory-field","stimulus":"Please type as many of the words that you heard from the first list that are furniture as you can. <br>\n<br>\n<em>\n    You can enter them in any order, just type as many of them as you can. <br>\n    Press the enter key after each word to save your response. <br>\n    Press stop if you are done.\n</em>\n","time_elapsed":18024,"userId":"ed732f11-6a56-4990-9a8d-9465c81770fb","dateTime":"2021-11-17T16:26:01.996Z","isRelevant":true},{"internal_node_id":"0.0-0.0-6.0","rt":2873,"response":" ","trial_type":"html-keyboard-response","stimulus":"Type all words from the first list that are vegetables. <br>\n<em>Press the space bar to continue.</em>\n","time_elapsed":20903,"trial_index":6,"userId":"ed732f11-6a56-4990-9a8d-9465c81770fb","dateTime":"2021-11-17T16:26:04.876Z","isRelevant":false},{"trial_index":7,"internal_node_id":"0.0-0.0-7.0","response":["bus"],"trial_type":"memory-field","stimulus":"Please type as many of the words that you heard from the first list that are vegetables as you can. <br>\n<br>\n<em>\n    You can enter them in any order, just type as many of them as you can. <br>\n    Press the enter key after each word to save your response. <br>\n    Press stop if you are done.\n</em>\n","time_elapsed":23738,"userId":"ed732f11-6a56-4990-9a8d-9465c81770fb","dateTime":"2021-11-17T16:26:07.711Z","isRelevant":true},{"internal_node_id":"0.0-0.0-8.0","rt":706,"response":" ","trial_type":"html-keyboard-response","stimulus":"Type all words from the first list that are ways of traveling. <br>\n<em>Press the space bar to continue.</em>\n","time_elapsed":24450,"trial_index":8,"userId":"ed732f11-6a56-4990-9a8d-9465c81770fb","dateTime":"2021-11-17T16:26:08.423Z","isRelevant":false},{"trial_index":9,"internal_node_id":"0.0-0.0-9.0","response":["cow"],"trial_type":"memory-field","stimulus":"Please type as many of the words that you heard from the first list that are ways of traveling as you can. <br>\n<br>\n<em>\n    You can enter them in any order, just type as many of them as you can. <br>\n    Press the enter key after each word to save your response. <br>\n    Press stop if you are done.\n</em>\n","time_elapsed":28527,"userId":"ed732f11-6a56-4990-9a8d-9465c81770fb","dateTime":"2021-11-17T16:26:12.499Z","isRelevant":true},{"internal_node_id":"0.0-0.0-10.0","rt":902,"response":" ","trial_type":"html-keyboard-response","stimulus":"Type all words from the first list that are animals. <br>\n<em>Press the space bar to continue.</em>\n","time_elapsed":29434,"trial_index":10,"userId":"ed732f11-6a56-4990-9a8d-9465c81770fb","dateTime":"2021-11-17T16:26:13.407Z","isRelevant":false},{"trial_index":11,"internal_node_id":"0.0-0.0-11.0","response":["pangolin"],"trial_type":"memory-field","stimulus":"Please type as many of the words that you heard from the first list that are animals as you can. <br>\n<br>\n<em>\n    You can enter them in any order, just type as many of them as you can. <br>\n    Press the enter key after each word to save your response. <br>\n    Press stop if you are done.\n</em>\n","time_elapsed":33623,"userId":"ed732f11-6a56-4990-9a8d-9465c81770fb","dateTime":"2021-11-17T16:26:17.595Z","isRelevant":true},{"ua":"Mozilla/5.0 (Macintosh; Intel Mac OS X 10.13; rv:94.0) Gecko/20100101 Firefox/94.0","userId":"ed732f11-6a56-4990-9a8d-9465c81770fb","dateTime":"2021-11-17T16:26:17.599Z","isRelevant":false},{"taskStarted":true,"userId":"6079389f-5d71-4087-9a91-f7e150dec265","dateTime":"2021-11-16T23:22:30.401Z","isRelevant":false},{"trial_index":0,"internal_node_id":"0.0-0.0-1.0-0.0","value":{"duration":280548},"trial_type":"call-function","time_elapsed":236,"userId":"6079389f-5d71-4087-9a91-f7e150dec265","dateTime":"2021-11-16T23:22:30.637Z","isRelevant":false},{"duration":280548,"trial_index":1,"internal_node_id":"0.0-0.0-1.0-1.0-0.0","trial_type":"countdown","time_elapsed":296358,"userId":"6079389f-5d71-4087-9a91-f7e150dec265","dateTime":"2021-11-16T23:27:26.760Z","isRelevant":false},{"internal_node_id":"0.0-0.0-2.0","rt":7892.299999952316,"response":" ","trial_type":"html-keyboard-response","stimulus":"We presented two different lists of words to you earlier: a first list that we presented several times, and a second list that we presented you once. Type all the words you can that were from the first list. Don’t type words from the second list, just the first list. <br> <em>Press the space bar to continue.</em> ","time_elapsed":304253,"trial_index":2,"userId":"6079389f-5d71-4087-9a91-f7e150dec265","dateTime":"2021-11-16T23:27:34.654Z","isRelevant":false},{"trial_index":3,"internal_node_id":"0.0-0.0-3.0","response":["truck","spinach","giraffe","bookcase","zebra","motorcycle","subway","cow","celery","lamp","desk","boat","squirrel","cabbage"],"trial_type":"memory-field","stimulus":"Please type as many of the words that you remember from the first list as you can. <br> <br> <em> You can enter them in any order, just type as many of them as you can. <br> Press the enter key after each word to save your response. <br> Press stop if you are done. </em> ","time_elapsed":345392,"userId":"6079389f-5d71-4087-9a91-f7e150dec265","dateTime":"2021-11-16T23:28:15.793Z","isRelevant":true},{"internal_node_id":"0.0-0.0-4.0","rt":2651,"response":" ","trial_type":"html-keyboard-response","stimulus":"Type all words from the first list that are furniture. <br> <em>Press the space bar to continue.</em> ","time_elapsed":348046,"trial_index":4,"userId":"6079389f-5d71-4087-9a91-f7e150dec265","dateTime":"2021-11-16T23:28:18.447Z","isRelevant":false},{"trial_index":5,"internal_node_id":"0.0-0.0-5.0","response":["desk","lamp","bookcase","cabinet"],"trial_type":"memory-field","stimulus":"Please type as many of the words that you heard from the first list that are furniture as you can. <br> <br> <em> You can enter them in any order, just type as many of them as you can. <br> Press the enter key after each word to save your response. <br> Press stop if you are done. </em> ","time_elapsed":365622,"userId":"6079389f-5d71-4087-9a91-f7e150dec265","dateTime":"2021-11-16T23:28:36.023Z","isRelevant":true},{"internal_node_id":"0.0-0.0-6.0","rt":1380.3000000715256,"response":" ","trial_type":"html-keyboard-response","stimulus":"Type all words from the first list that are vegetables. <br> <em>Press the space bar to continue.</em> ","time_elapsed":367004,"trial_index":6,"userId":"6079389f-5d71-4087-9a91-f7e150dec265","dateTime":"2021-11-16T23:28:37.406Z","isRelevant":false},{"trial_index":7,"internal_node_id":"0.0-0.0-7.0","response":["cabbage","celery","spinach","onion"],"trial_type":"memory-field","stimulus":"Please type as many of the words that you heard from the first list that are vegetables as you can. <br> <br> <em> You can enter them in any order, just type as many of them as you can. <br> Press the enter key after each word to save your response. <br> Press stop if you are done. </em> ","time_elapsed":384432,"userId":"6079389f-5d71-4087-9a91-f7e150dec265","dateTime":"2021-11-16T23:28:54.833Z","isRelevant":true},{"internal_node_id":"0.0-0.0-8.0","rt":1162.3999999761581,"response":" ","trial_type":"html-keyboard-response","stimulus":"Type all words from the first list that are ways of traveling. <br> <em>Press the space bar to continue.</em> ","time_elapsed":385596,"trial_index":8,"userId":"6079389f-5d71-4087-9a91-f7e150dec265","dateTime":"2021-11-16T23:28:55.997Z","isRelevant":false},{"trial_index":9,"internal_node_id":"0.0-0.0-9.0","response":["boat","motorcycle","truck"],"trial_type":"memory-field","stimulus":"Please type as many of the words that you heard from the first list that are ways of traveling as you can. <br> <br> <em> You can enter them in any order, just type as many of them as you can. <br> Press the enter key after each word to save your response. <br> Press stop if you are done. </em> ","time_elapsed":398014,"userId":"6079389f-5d71-4087-9a91-f7e150dec265","dateTime":"2021-11-16T23:29:08.415Z","isRelevant":true},{"internal_node_id":"0.0-0.0-10.0","rt":876.6000000238419,"response":" ","trial_type":"html-keyboard-response","stimulus":"Type all words from the first list that are animals. <br> <em>Press the space bar to continue.</em> ","time_elapsed":398893,"trial_index":10,"userId":"6079389f-5d71-4087-9a91-f7e150dec265","dateTime":"2021-11-16T23:29:09.294Z","isRelevant":false},{"trial_index":11,"internal_node_id":"0.0-0.0-11.0","response":["cow","squirrel","zebra"],"trial_type":"memory-field","stimulus":"Please type as many of the words that you heard from the first list that are animals as you can. <br> <br> <em> You can enter them in any order, just type as many of them as you can. <br> Press the enter key after each word to save your response. <br> Press stop if you are done. </em> ","time_elapsed":409342,"userId":"6079389f-5d71-4087-9a91-f7e150dec265","dateTime":"2021-11-16T23:29:19.743Z","isRelevant":true},{"ua":"Mozilla/5.0 (Windows NT 10.0; Win64; x64) AppleWebKit/537.36 (KHTML, like Gecko) Chrome/95.0.4638.69 Safari/537.36","userId":"6079389f-5d71-4087-9a91-f7e150dec265","dateTime":"2021-11-16T23:29:19.745Z","isRelevant":false},{"taskStarted":true,"userId":"0d940b94-1baf-43bf-a981-857ddf728e29","dateTime":"2021-11-16T22:48:53.930Z","isRelevant":false},{"trial_index":0,"internal_node_id":"0.0-0.0-1.0-0.0","value":{"duration":66753},"trial_type":"call-function","time_elapsed":104,"userId":"0d940b94-1baf-43bf-a981-857ddf728e29","dateTime":"2021-11-16T22:48:54.034Z","isRelevant":false},{"duration":66753,"trial_index":1,"internal_node_id":"0.0-0.0-1.0-1.0-0.0","trial_type":"countdown","time_elapsed":125636,"userId":"0d940b94-1baf-43bf-a981-857ddf728e29","dateTime":"2021-11-16T22:50:59.566Z","isRelevant":false},{"internal_node_id":"0.0-0.0-2.0","rt":4635,"response":" ","trial_type":"html-keyboard-response","stimulus":"We presented two different lists of words to you earlier: a first list that we presented several times, and a second list that we presented you once. Type all the words you can that were from the first list. Don’t type words from the second list, just the first list. <br> <em>Press the space bar to continue.</em> ","time_elapsed":130275,"trial_index":2,"userId":"0d940b94-1baf-43bf-a981-857ddf728e29","dateTime":"2021-11-16T22:51:04.205Z","isRelevant":false},{"trial_index":3,"internal_node_id":"0.0-0.0-3.0","response":["truck","subway","motorcycle","boat","giraffe","squirrel","cow","zebra","desk","bookcase","cabinet","lamp","cabbage","spinach","celery","onion"],"trial_type":"memory-field","stimulus":"Please type as many of the words that you remember from the first list as you can. <br> <br> <em> You can enter them in any order, just type as many of them as you can. <br> Press the enter key after each word to save your response. <br> Press stop if you are done. </em> ","time_elapsed":171889,"userId":"0d940b94-1baf-43bf-a981-857ddf728e29","dateTime":"2021-11-16T22:51:45.819Z","isRelevant":true},{"internal_node_id":"0.0-0.0-4.0","rt":2097,"response":" ","trial_type":"html-keyboard-response","stimulus":"Type all words from the first list that are furniture. <br> <em>Press the space bar to continue.</em> ","time_elapsed":173990,"trial_index":4,"userId":"0d940b94-1baf-43bf-a981-857ddf728e29","dateTime":"2021-11-16T22:51:47.921Z","isRelevant":false},{"trial_index":5,"internal_node_id":"0.0-0.0-5.0","response":[],"trial_type":"memory-field","stimulus":"Please type as many of the words that you heard from the first list that are furniture as you can. <br> <br> <em> You can enter them in any order, just type as many of them as you can. <br> Press the enter key after each word to save your response. <br> Press stop if you are done. </em> ","time_elapsed":179970,"userId":"0d940b94-1baf-43bf-a981-857ddf728e29","dateTime":"2021-11-16T22:51:53.900Z","isRelevant":true},{"internal_node_id":"0.0-0.0-6.0","rt":2369,"response":" ","trial_type":"html-keyboard-response","stimulus":"Type all words from the first list that are vegetables. <br> <em>Press the space bar to continue.</em> ","time_elapsed":182344,"trial_index":6,"userId":"0d940b94-1baf-43bf-a981-857ddf728e29","dateTime":"2021-11-16T22:51:56.275Z","isRelevant":false},{"trial_index":7,"internal_node_id":"0.0-0.0-7.0","response":["onion","cabbage"],"trial_type":"memory-field","stimulus":"Please type as many of the words that you heard from the first list that are vegetables as you can. <br> <br> <em> You can enter them in any order, just type as many of them as you can. <br> Press the enter key after each word to save your response. <br> Press stop if you are done. </em> ","time_elapsed":203824,"userId":"0d940b94-1baf-43bf-a981-857ddf728e29","dateTime":"2021-11-16T22:52:17.754Z","isRelevant":true},{"internal_node_id":"0.0-0.0-8.0","rt":1958,"response":" ","trial_type":"html-keyboard-response","stimulus":"Type all words from the first list that are ways of traveling. <br> <em>Press the space bar to continue.</em> ","time_elapsed":205785,"trial_index":8,"userId":"0d940b94-1baf-43bf-a981-857ddf728e29","dateTime":"2021-11-16T22:52:19.715Z","isRelevant":false},{"trial_index":9,"internal_node_id":"0.0-0.0-9.0","response":["subway","truck","boat","motorcycle"],"trial_type":"memory-field","stimulus":"Please type as many of the words that you heard from the first list that are ways of traveling as you can. <br> <br> <em> You can enter them in any order, just type as many of them as you can. <br> Press the enter key after each word to save your response. <br> Press stop if you are done. </em> ","time_elapsed":219614,"userId":"0d940b94-1baf-43bf-a981-857ddf728e29","dateTime":"2021-11-16T22:52:33.544Z","isRelevant":true},{"internal_node_id":"0.0-0.0-10.0","rt":1838,"response":" ","trial_type":"html-keyboard-response","stimulus":"Type all words from the first list that are animals. <br> <em>Press the space bar to continue.</em> ","time_elapsed":221457,"trial_index":10,"userId":"0d940b94-1baf-43bf-a981-857ddf728e29","dateTime":"2021-11-16T22:52:35.387Z","isRelevant":false},{"trial_index":11,"internal_node_id":"0.0-0.0-11.0","response":["zebra","giraffe","cow","squirrel"],"trial_type":"memory-field","stimulus":"Please type as many of the words that you heard from the first list that are animals as you can. <br> <br> <em> You can enter them in any order, just type as many of them as you can. <br> Press the enter key after each word to save your response. <br> Press stop if you are done. </em> ","time_elapsed":398320,"userId":"0d940b94-1baf-43bf-a981-857ddf728e29","dateTime":"2021-11-16T22:55:32.250Z","isRelevant":true},{"ua":"Mozilla/5.0 (Macintosh; Intel Mac OS X 10.15; rv:94.0) Gecko/20100101 Firefox/94.0","userId":"0d940b94-1baf-43bf-a981-857ddf728e29","dateTime":"2021-11-16T22:55:32.253Z","isRelevant":false},{"taskStarted":true,"userId":"0498cbe0-60ab-45be-984d-ded9dbcdc27d","dateTime":"2021-11-09T18:45:11.551Z","isRelevant":false},{"trial_index":0,"internal_node_id":"0.0-0.0-1.0-0.0","value":{"duration":322575},"trial_type":"call-function","time_elapsed":431,"userId":"0498cbe0-60ab-45be-984d-ded9dbcdc27d","dateTime":"2021-11-09T18:45:11.983Z","isRelevant":false},{"duration":322575,"trial_index":1,"internal_node_id":"0.0-0.0-1.0-1.0-0.0","trial_type":"countdown","time_elapsed":325056,"userId":"0498cbe0-60ab-45be-984d-ded9dbcdc27d","dateTime":"2021-11-09T18:50:36.607Z","isRelevant":false},{"internal_node_id":"0.0-0.0-2.0","rt":3953.599999964237,"response":" ","trial_type":"html-keyboard-response","stimulus":"We presented two different lists of words to you earlier: a first list that we presented several times, and a second list that we presented you once. Type all the words you can that were from the first list. Don’t type words from the second list, just the first list. <br> <em>Press the space bar to continue.</em> ","time_elapsed":329011,"trial_index":2,"userId":"0498cbe0-60ab-45be-984d-ded9dbcdc27d","dateTime":"2021-11-09T18:50:40.562Z","isRelevant":false},{"trial_index":3,"internal_node_id":"0.0-0.0-3.0","response":["truck","cabbage","onion","celery","giraffe","motorcyc;e","motorcycle","boat","zebra","cow","subway","spinach","lamp","bookshelf","desk","cabinet","squirrel"],"trial_type":"memory-field","stimulus":"Please type as many of the words that you remember from the first list as you can. <br> <br> <em> You can enter them in any order, just type as many of them as you can. <br> Press the enter key after each word to save your response. <br> Press stop if you are done. </em> ","time_elapsed":388905,"userId":"0498cbe0-60ab-45be-984d-ded9dbcdc27d","dateTime":"2021-11-09T18:51:40.456Z","isRelevant":true},{"internal_node_id":"0.0-0.0-4.0","rt":1508.3999999761581,"response":" ","trial_type":"html-keyboard-response","stimulus":"Type all words from the first list that are furniture. <br> <em>Press the space bar to continue.</em> ","time_elapsed":390414,"trial_index":4,"userId":"0498cbe0-60ab-45be-984d-ded9dbcdc27d","dateTime":"2021-11-09T18:51:41.966Z","isRelevant":false},{"trial_index":5,"internal_node_id":"0.0-0.0-5.0","response":["cabinet","lamp","desk","bookshelf"],"trial_type":"memory-field","stimulus":"Please type as many of the words that you heard from the first list that are furniture as you can. <br> <br> <em> You can enter them in any order, just type as many of them as you can. <br> Press the enter key after each word to save your response. <br> Press stop if you are done. </em> ","time_elapsed":403623,"userId":"0498cbe0-60ab-45be-984d-ded9dbcdc27d","dateTime":"2021-11-09T18:51:55.174Z","isRelevant":true},{"internal_node_id":"0.0-0.0-6.0","rt":1330,"response":" ","trial_type":"html-keyboard-response","stimulus":"Type all words from the first list that are vegetables. <br> <em>Press the space bar to continue.</em> ","time_elapsed":404955,"trial_index":6,"userId":"0498cbe0-60ab-45be-984d-ded9dbcdc27d","dateTime":"2021-11-09T18:51:56.506Z","isRelevant":false},{"trial_index":7,"internal_node_id":"0.0-0.0-7.0","response":["spinach","celery","onion","cabbage"],"trial_type":"memory-field","stimulus":"Please type as many of the words that you heard from the first list that are vegetables as you can. <br> <br> <em> You can enter them in any order, just type as many of them as you can. <br> Press the enter key after each word to save your response. <br> Press stop if you are done. </em> ","time_elapsed":416889,"userId":"0498cbe0-60ab-45be-984d-ded9dbcdc27d","dateTime":"2021-11-09T18:52:08.440Z","isRelevant":true},{"internal_node_id":"0.0-0.0-8.0","rt":1107.5,"response":" ","trial_type":"html-keyboard-response","stimulus":"Type all words from the first list that are ways of traveling. <br> <em>Press the space bar to continue.</em> ","time_elapsed":417998,"trial_index":8,"userId":"0498cbe0-60ab-45be-984d-ded9dbcdc27d","dateTime":"2021-11-09T18:52:09.549Z","isRelevant":false},{"trial_index":9,"internal_node_id":"0.0-0.0-9.0","response":["boat","truck","motorcycle","subway"],"trial_type":"memory-field","stimulus":"Please type as many of the words that you heard from the first list that are ways of traveling as you can. <br> <br> <em> You can enter them in any order, just type as many of them as you can. <br> Press the enter key after each word to save your response. <br> Press stop if you are done. </em> ","time_elapsed":431973,"userId":"0498cbe0-60ab-45be-984d-ded9dbcdc27d","dateTime":"2021-11-09T18:52:23.524Z","isRelevant":true},{"internal_node_id":"0.0-0.0-10.0","rt":1117.6000000238419,"response":" ","trial_type":"html-keyboard-response","stimulus":"Type all words from the first list that are animals. <br> <em>Press the space bar to continue.</em> ","time_elapsed":433091,"trial_index":10,"userId":"0498cbe0-60ab-45be-984d-ded9dbcdc27d","dateTime":"2021-11-09T18:52:24.643Z","isRelevant":false},{"ua":"Mozilla/5.0 (Windows NT 10.0; Win64; x64) AppleWebKit/537.36 (KHTML, like Gecko) Chrome/95.0.4638.69 Safari/537.36","userId":"0498cbe0-60ab-45be-984d-ded9dbcdc27d","dateTime":"2021-11-09T18:52:36.803Z","isRelevant":false}]
