[{"taskStarted":true,"userId":"0d3c05d0-cd11-47ab-b5fb-d4c828114f29","dateTime":"2021-11-13T00:23:04.016Z","isRelevant":false},{"trial_index":0,"internal_node_id":"0.0-0.0-0.0-0.0","success":true,"trial_type":"fullscreen","time_elapsed":711,"userId":"0d3c05d0-cd11-47ab-b5fb-d4c828114f29","dateTime":"2021-11-13T00:23:04.727Z","isRelevant":false},{"internal_node_id":"0.0-0.0-1.0","rt":580,"response":" ","trial_type":"html-keyboard-response","stimulus":"<h1>Instruction</h1>\r\nYou are about to begin a new task. <br>\r\nYou will be asked to type as many words starting with one particular letter as you can in one\r\nminute. <br>\r\nProper nouns will not count towards your total (proper nouns identify a single entity and\r\nare usually capitalized&mdash;for example, London, Jupiter, Sarah, and Microsoft). <br>\r\nWhen you are ready, please press the space bar and we will show you the letter. <br>\r\n<em>Press the space bar to begin.</em>\r\n","time_elapsed":1293,"trial_index":1,"userId":"0d3c05d0-cd11-47ab-b5fb-d4c828114f29","dateTime":"2021-11-13T00:23:05.309Z","isRelevant":false},{"internal_node_id":"0.0-0.0-2.0","response":" ","trial_type":"timed-writing","stimulus":"Starting now, type as many words starting with <span id=\"verbal-fluency-letter\">p</span> as you can in one minute. <br>\r\nPlease put a space or a line break between each word.\r\n","letter":"p","time_elapsed":61295,"trial_index":2,"userId":"0d3c05d0-cd11-47ab-b5fb-d4c828114f29","dateTime":"2021-11-13T00:24:05.312Z","isRelevant":true},{"ua":"Mozilla/5.0 (Windows NT 10.0; Win64; x64; rv:94.0) Gecko/20100101 Firefox/94.0","userId":"0d3c05d0-cd11-47ab-b5fb-d4c828114f29","dateTime":"2021-11-13T00:24:05.314Z","isRelevant":false},{"taskStarted":true,"userId":"524d2272-d17f-42aa-b335-772a7ac10972","dateTime":"2021-11-10T16:30:43.317Z","isRelevant":false},{"internal_node_id":"0.0-0.0-1.0","rt":51269,"response":" ","trial_type":"html-keyboard-response","stimulus":"<h1>Instruction</h1> You are about to begin a new task. <br> You will be asked to type as many words starting with one particular letter as you can in one minute. <br> Proper nouns will not count towards your total (proper nouns identify a single entity and are usually capitalized&mdash;for example, London, Jupiter, Sarah, and Microsoft). <br> When you are ready, please press the space bar and we will show you the letter. <br> <em>Press the space bar to begin.</em> ","time_elapsed":51271,"trial_index":0,"userId":"524d2272-d17f-42aa-b335-772a7ac10972","dateTime":"2021-11-10T16:31:34.588Z","isRelevant":false},{"internal_node_id":"0.0-0.0-2.0","response":"skirt, scoop, sunny, sun, sandals, scarf, swim, sky, ski, skate, silk, soap, sjull","trial_type":"timed-writing","stimulus":"Starting now, type as many words starting with <strong>s</strong> as you can in one minute. <br> Please put a space or a line break between each word. ","letter":"s","time_elapsed":111296,"trial_index":1,"userId":"524d2272-d17f-42aa-b335-772a7ac10972","dateTime":"2021-11-10T16:32:34.613Z","isRelevant":true},{"ua":"Mozilla/5.0 (Macintosh; Intel Mac OS X 10.15; rv:94.0) Gecko/20100101 Firefox/94.0","userId":"524d2272-d17f-42aa-b335-772a7ac10972","dateTime":"2021-11-10T16:32:34.614Z","isRelevant":false},{"taskStarted":true,"userId":"524d2272-d17f-42aa-b335-772a7ac10972","dateTime":"2021-11-11T16:00:52.236Z","isRelevant":false},{"internal_node_id":"0.0-0.0-1.0","rt":122348,"response":" ","trial_type":"html-keyboard-response","stimulus":"<h1>Instruction</h1> You are about to begin a new task. <br> You will be asked to type as many words starting with one particular letter as you can in one minute. <br> Proper nouns will not count towards your total (proper nouns identify a single entity and are usually capitalized&mdash;for example, London, Jupiter, Sarah, and Microsoft). <br> When you are ready, please press the space bar and we will show you the letter. <br> <em>Press the space bar to begin.</em> ","time_elapsed":122360,"trial_index":0,"userId":"524d2272-d17f-42aa-b335-772a7ac10972","dateTime":"2021-11-11T16:02:54.595Z","isRelevant":false},{"internal_node_id":"0.0-0.0-2.0","response":"apple, angle, angel, arm, army, angry, arrange, aspirin, answer, aspect, attach, attack, air, alerm, acting, aim, ants, aunt, air, ar","trial_type":"timed-writing","stimulus":"Starting now, type as many words starting with <strong>a</strong> as you can in one minute. <br> Please put a space or a line break between each word. ","letter":"a","time_elapsed":182381,"trial_index":1,"userId":"524d2272-d17f-42aa-b335-772a7ac10972","dateTime":"2021-11-11T16:03:54.616Z","isRelevant":true},{"ua":"Mozilla/5.0 (Macintosh; Intel Mac OS X 10.15; rv:94.0) Gecko/20100101 Firefox/94.0","userId":"524d2272-d17f-42aa-b335-772a7ac10972","dateTime":"2021-11-11T16:03:54.619Z","isRelevant":false},{"taskStarted":true,"userId":"524d2272-d17f-42aa-b335-772a7ac10972","dateTime":"2021-11-13T00:12:38.917Z","isRelevant":false},{"internal_node_id":"0.0-0.0-1.0","rt":17196,"response":" ","trial_type":"html-keyboard-response","stimulus":"<h1>Instruction</h1> You are about to begin a new task. <br> You will be asked to type as many words starting with one particular letter as you can in one minute. <br> Proper nouns will not count towards your total (proper nouns identify a single entity and are usually capitalized&mdash;for example, London, Jupiter, Sarah, and Microsoft). <br> When you are ready, please press the space bar and we will show you the letter. <br> <em>Press the space bar to begin.</em> ","time_elapsed":17198,"trial_index":0,"userId":"524d2272-d17f-42aa-b335-772a7ac10972","dateTime":"2021-11-13T00:12:56.115Z","isRelevant":false},{"internal_node_id":"0.0-0.0-2.0","response":"sick, school salmon, sandal, sun, sunny, sunday, succor, skim, swim, stroke, skin, salmon, soap, soup, sauce","trial_type":"timed-writing","stimulus":"Starting now, type as many words starting with <strong>s</strong> as you can in one minute. <br> Please put a space or a line break between each word. ","letter":"s","time_elapsed":77217,"trial_index":1,"userId":"524d2272-d17f-42aa-b335-772a7ac10972","dateTime":"2021-11-13T00:13:56.134Z","isRelevant":true},{"ua":"Mozilla/5.0 (Macintosh; Intel Mac OS X 10.15; rv:94.0) Gecko/20100101 Firefox/94.0","userId":"524d2272-d17f-42aa-b335-772a7ac10972","dateTime":"2021-11-13T00:13:56.136Z","isRelevant":false},{"taskStarted":true,"userId":"524d2272-d17f-42aa-b335-772a7ac10972","dateTime":"2021-11-13T22:34:01.947Z","isRelevant":false},{"internal_node_id":"0.0-0.0-1.0","rt":41435,"response":" ","trial_type":"html-keyboard-response","stimulus":"<h1>Instruction</h1> You are about to begin a new task. <br> You will be asked to type as many words starting with one particular letter as you can in one minute. <br> Proper nouns will not count towards your total (proper nouns identify a single entity and are usually capitalized&mdash;for example, London, Jupiter, Sarah, and Microsoft). <br> When you are ready, please press the space bar and we will show you the letter. <br> <em>Press the space bar to begin.</em> ","time_elapsed":41439,"trial_index":0,"userId":"524d2272-d17f-42aa-b335-772a7ac10972","dateTime":"2021-11-13T22:34:43.386Z","isRelevant":false},{"internal_node_id":"0.0-0.0-2.0","response":"apple, angle, angel, angry, anchor, audio, air, alarm, alert, answer, aspirin, aunts, ants, arrange, ankle, arm, army, agg","trial_type":"timed-writing","stimulus":"Starting now, type as many words starting with <strong>a</strong> as you can in one minute. <br> Please put a space or a line break between each word. ","letter":"a","time_elapsed":101469,"trial_index":1,"userId":"524d2272-d17f-42aa-b335-772a7ac10972","dateTime":"2021-11-13T22:35:43.416Z","isRelevant":true},{"ua":"Mozilla/5.0 (Macintosh; Intel Mac OS X 10.15; rv:94.0) Gecko/20100101 Firefox/94.0","userId":"524d2272-d17f-42aa-b335-772a7ac10972","dateTime":"2021-11-13T22:35:43.418Z","isRelevant":false},{"taskStarted":true,"userId":"524d2272-d17f-42aa-b335-772a7ac10972","dateTime":"2021-11-17T05:19:44.557Z","isRelevant":false},{"internal_node_id":"0.0-0.0-1.0","rt":387464,"response":" ","trial_type":"html-keyboard-response","stimulus":"<h1>Instruction</h1> You are about to begin a new task. <br> You will be asked to type as many words starting with one particular letter as you can in one minute. <br> Proper nouns will not count towards your total (proper nouns identify a single entity and are usually capitalized&mdash;for example, London, Jupiter, Sarah, and Microsoft). <br> When you are ready, please press the space bar and we will show you the letter. <br> <em>Press the space bar to begin.</em> ","time_elapsed":387477,"trial_index":0,"userId":"524d2272-d17f-42aa-b335-772a7ac10972","dateTime":"2021-11-17T05:26:12.034Z","isRelevant":false},{"internal_node_id":"0.0-0.0-2.0","response":"dog, doll, dig, dance, dark, donuts, dollars, dull, drink, delight, door, deal, dear, dean, deal, deck, disk","trial_type":"timed-writing","stimulus":"Starting now, type as many words starting with <span id=\"verbal-fluency-letter\">d</span> as you can in one minute. <br> Please put a space or a line break between each word. ","letter":"d","time_elapsed":447499,"trial_index":1,"userId":"524d2272-d17f-42aa-b335-772a7ac10972","dateTime":"2021-11-17T05:27:12.057Z","isRelevant":true},{"ua":"Mozilla/5.0 (Macintosh; Intel Mac OS X 10.15; rv:94.0) Gecko/20100101 Firefox/94.0","userId":"524d2272-d17f-42aa-b335-772a7ac10972","dateTime":"2021-11-17T05:27:12.062Z","isRelevant":false},{"taskStarted":true,"userId":"118a2724-6420-41e6-af9f-42da893ea092","dateTime":"2021-11-07T01:38:30.288Z","isRelevant":false},{"internal_node_id":"0.0-0.0-1.0","rt":1384.9000000059605,"response":" ","trial_type":"html-keyboard-response","stimulus":"<h1>Instruction</h1> You are about to begin a new task. <br> You will be asked to type as many words starting with one particular letter as you can in one minute. <br> Proper nouns will not count towards your total (proper nouns identify a single entity and are usually capitalized&mdash;for example, London, Jupiter, Sarah, and Microsoft). <br> When you are ready, please press the space bar and we will show you the letter. <br> <em>Press the space bar to begin.</em> ","time_elapsed":1388,"trial_index":0,"userId":"118a2724-6420-41e6-af9f-42da893ea092","dateTime":"2021-11-07T01:38:31.676Z","isRelevant":false},{"internal_node_id":"0.0-0.0-2.0","response":"apple and anger angry aghast arrow archer archery art artist artistic amazed amazing awesome awe arrogant anteater aardvark amazon ","trial_type":"timed-writing","stimulus":"Starting now, type as many words starting with <strong>a</strong> as you can in one minute. <br> Please put a space or a line break between each word. ","letter":"a","time_elapsed":61399,"trial_index":1,"userId":"118a2724-6420-41e6-af9f-42da893ea092","dateTime":"2021-11-07T01:39:31.688Z","isRelevant":true},{"ua":"Mozilla/5.0 (Macintosh; Intel Mac OS X 10_15_7) AppleWebKit/537.36 (KHTML, like Gecko) Chrome/95.0.4638.54 Safari/537.36","userId":"118a2724-6420-41e6-af9f-42da893ea092","dateTime":"2021-11-07T01:39:31.691Z","isRelevant":false},{"taskStarted":true,"userId":"118a2724-6420-41e6-af9f-42da893ea092","dateTime":"2021-11-09T06:43:04.164Z","isRelevant":false},{"internal_node_id":"0.0-0.0-1.0","rt":1351.7000000178814,"response":" ","trial_type":"html-keyboard-response","stimulus":"<h1>Instruction</h1> You are about to begin a new task. <br> You will be asked to type as many words starting with one particular letter as you can in one minute. <br> Proper nouns will not count towards your total (proper nouns identify a single entity and are usually capitalized&mdash;for example, London, Jupiter, Sarah, and Microsoft). <br> When you are ready, please press the space bar and we will show you the letter. <br> <em>Press the space bar to begin.</em> ","time_elapsed":1353,"trial_index":0,"userId":"118a2724-6420-41e6-af9f-42da893ea092","dateTime":"2021-11-09T06:43:05.518Z","isRelevant":false},{"internal_node_id":"0.0-0.0-2.0","response":"sandwich sun sand sandal superhero super sad stall stand speaker speak soup salad sunblock sunscreen stop sign ","trial_type":"timed-writing","stimulus":"Starting now, type as many words starting with <strong>s</strong> as you can in one minute. <br> Please put a space or a line break between each word. ","letter":"s","time_elapsed":61371,"trial_index":1,"userId":"118a2724-6420-41e6-af9f-42da893ea092","dateTime":"2021-11-09T06:44:05.536Z","isRelevant":true},{"ua":"Mozilla/5.0 (Macintosh; Intel Mac OS X 10_15_7) AppleWebKit/537.36 (KHTML, like Gecko) Chrome/95.0.4638.54 Safari/537.36","userId":"118a2724-6420-41e6-af9f-42da893ea092","dateTime":"2021-11-09T06:44:05.540Z","isRelevant":false},{"taskStarted":true,"userId":"118a2724-6420-41e6-af9f-42da893ea092","dateTime":"2021-11-09T17:47:48.323Z","isRelevant":false},{"internal_node_id":"0.0-0.0-1.0","rt":16638.59999999404,"response":" ","trial_type":"html-keyboard-response","stimulus":"<h1>Instruction</h1> You are about to begin a new task. <br> You will be asked to type as many words starting with one particular letter as you can in one minute. <br> Proper nouns will not count towards your total (proper nouns identify a single entity and are usually capitalized&mdash;for example, London, Jupiter, Sarah, and Microsoft). <br> When you are ready, please press the space bar and we will show you the letter. <br> <em>Press the space bar to begin.</em> ","time_elapsed":16647,"trial_index":0,"userId":"118a2724-6420-41e6-af9f-42da893ea092","dateTime":"2021-11-09T17:48:04.968Z","isRelevant":false},{"internal_node_id":"0.0-0.0-2.0","response":"fan fans flora flower fauna food fast fetch fairy fable fae famous fame fair foot feet fool fine fern farm firm form","trial_type":"timed-writing","stimulus":"Starting now, type as many words starting with <strong>f</strong> as you can in one minute. <br> Please put a space or a line break between each word. ","letter":"f","time_elapsed":76662,"trial_index":1,"userId":"118a2724-6420-41e6-af9f-42da893ea092","dateTime":"2021-11-09T17:49:04.985Z","isRelevant":true},{"ua":"Mozilla/5.0 (Macintosh; Intel Mac OS X 10_15_7) AppleWebKit/537.36 (KHTML, like Gecko) Chrome/95.0.4638.54 Safari/537.36","userId":"118a2724-6420-41e6-af9f-42da893ea092","dateTime":"2021-11-09T17:49:04.990Z","isRelevant":false},{"taskStarted":true,"userId":"b07d920b-a11a-422a-a359-694608c3cd00","dateTime":"2021-11-16T18:37:29.289Z","isRelevant":false},{"internal_node_id":"0.0-0.0-1.0","rt":57760.300000071526,"response":" ","trial_type":"html-keyboard-response","stimulus":"<h1>Instruction</h1> You are about to begin a new task. <br> You will be asked to type as many words starting with one particular letter as you can in one minute. <br> Proper nouns will not count towards your total (proper nouns identify a single entity and are usually capitalized&mdash;for example, London, Jupiter, Sarah, and Microsoft). <br> When you are ready, please press the space bar and we will show you the letter. <br> <em>Press the space bar to begin.</em> ","time_elapsed":57759,"trial_index":0,"userId":"b07d920b-a11a-422a-a359-694608c3cd00","dateTime":"2021-11-16T18:38:27.048Z","isRelevant":false},{"internal_node_id":"0.0-0.0-2.0","response":"cat cocoa cycle coyote cough commute cite\n","trial_type":"timed-writing","stimulus":"Starting now, type as many words starting with <span id=\"verbal-fluency-letter\">c</span> as you can in one minute. <br> Please put a space or a line break between each word. ","letter":"c","time_elapsed":117763,"trial_index":1,"userId":"b07d920b-a11a-422a-a359-694608c3cd00","dateTime":"2021-11-16T18:39:27.052Z","isRelevant":true},{"ua":"Mozilla/5.0 (Macintosh; Intel Mac OS X 10_15_7) AppleWebKit/537.36 (KHTML, like Gecko) Chrome/95.0.4638.54 Safari/537.36","userId":"b07d920b-a11a-422a-a359-694608c3cd00","dateTime":"2021-11-16T18:39:27.054Z","isRelevant":false},{"taskStarted":true,"userId":"b07d920b-a11a-422a-a359-694608c3cd00","dateTime":"2021-11-17T23:09:12.694Z","isRelevant":false},{"internal_node_id":"0.0-0.0-1.0","rt":7001,"response":" ","trial_type":"html-keyboard-response","stimulus":"<h1>Instruction</h1> You are about to begin a new task. <br> You will be asked to type as many words starting with one particular letter as you can in one minute. <br> Proper nouns will not count towards your total (proper nouns identify a single entity and are usually capitalized&mdash;for example, London, Jupiter, Sarah, and Microsoft). <br> When you are ready, please press the space bar and we will show you the letter. <br> <em>Press the space bar to begin.</em> ","time_elapsed":7003,"trial_index":0,"userId":"b07d920b-a11a-422a-a359-694608c3cd00","dateTime":"2021-11-17T23:09:19.698Z","isRelevant":false},{"internal_node_id":"0.0-0.0-2.0","response":"fool figure fin find fossil free freedom frank focal freight famous farm\n","trial_type":"timed-writing","stimulus":"Starting now, type as many words starting with <span id=\"verbal-fluency-letter\">f</span> as you can in one minute. <br> Please put a space or a line break between each word. ","letter":"f","time_elapsed":67011,"trial_index":1,"userId":"b07d920b-a11a-422a-a359-694608c3cd00","dateTime":"2021-11-17T23:10:19.705Z","isRelevant":true},{"ua":"Mozilla/5.0 (Macintosh; Intel Mac OS X 10_15_7) AppleWebKit/537.36 (KHTML, like Gecko) Chrome/95.0.4638.54 Safari/537.36","userId":"b07d920b-a11a-422a-a359-694608c3cd00","dateTime":"2021-11-17T23:10:19.706Z","isRelevant":false},{"taskStarted":true,"userId":"b07d920b-a11a-422a-a359-694608c3cd00","dateTime":"2021-11-19T05:18:13.764Z","isRelevant":false},{"internal_node_id":"0.0-0.0-1.0","rt":5936.5,"response":" ","trial_type":"html-keyboard-response","stimulus":"<h1>Instruction</h1> You are about to begin a new task. <br> You will be asked to type as many words starting with one particular letter as you can in one minute. <br> Proper nouns will not count towards your total (proper nouns identify a single entity and are usually capitalized&mdash;for example, London, Jupiter, Sarah, and Microsoft). <br> When you are ready, please press the space bar and we will show you the letter. <br> <em>Press the space bar to begin.</em> ","time_elapsed":5938,"trial_index":0,"userId":"b07d920b-a11a-422a-a359-694608c3cd00","dateTime":"2021-11-19T05:18:19.701Z","isRelevant":false},{"internal_node_id":"0.0-0.0-2.0","response":"pill poem pet panic poll paint pollution papaya piano pack","trial_type":"timed-writing","stimulus":"Starting now, type as many words starting with <span id=\"verbal-fluency-letter\">p</span> as you can in one minute. <br> Please put a space or a line break between each word. ","letter":"p","time_elapsed":65943,"trial_index":1,"userId":"b07d920b-a11a-422a-a359-694608c3cd00","dateTime":"2021-11-19T05:19:19.706Z","isRelevant":true},{"ua":"Mozilla/5.0 (Macintosh; Intel Mac OS X 10_15_7) AppleWebKit/537.36 (KHTML, like Gecko) Chrome/95.0.4638.54 Safari/537.36","userId":"b07d920b-a11a-422a-a359-694608c3cd00","dateTime":"2021-11-19T05:19:19.707Z","isRelevant":false},{"taskStarted":true,"userId":"b07d920b-a11a-422a-a359-694608c3cd00","dateTime":"2021-11-20T00:44:27.773Z","isRelevant":false},{"internal_node_id":"0.0-0.0-1.0","rt":6323.799999952316,"response":" ","trial_type":"html-keyboard-response","stimulus":"<h1>Instruction</h1> You are about to begin a new task. <br> You will be asked to type as many words starting with one particular letter as you can in one minute. <br> Proper nouns will not count towards your total (proper nouns identify a single entity and are usually capitalized&mdash;for example, London, Jupiter, Sarah, and Microsoft). <br> When you are ready, please press the space bar and we will show you the letter. <br> <em>Press the space bar to begin.</em> ","time_elapsed":6325,"trial_index":0,"userId":"b07d920b-a11a-422a-a359-694608c3cd00","dateTime":"2021-11-20T00:44:34.098Z","isRelevant":false},{"internal_node_id":"0.0-0.0-2.0","response":"apple anatomy atom arm army apron atmosphere attack all aunt an","trial_type":"timed-writing","stimulus":"Starting now, type as many words starting with <span id=\"verbal-fluency-letter\">a</span> as you can in one minute. <br> Please put a space or a line break between each word. ","letter":"a","time_elapsed":66332,"trial_index":1,"userId":"b07d920b-a11a-422a-a359-694608c3cd00","dateTime":"2021-11-20T00:45:34.105Z","isRelevant":true},{"ua":"Mozilla/5.0 (Macintosh; Intel Mac OS X 10_15_7) AppleWebKit/537.36 (KHTML, like Gecko) Chrome/95.0.4638.54 Safari/537.36","userId":"b07d920b-a11a-422a-a359-694608c3cd00","dateTime":"2021-11-20T00:45:34.106Z","isRelevant":false},{"taskStarted":true,"userId":"b07d920b-a11a-422a-a359-694608c3cd00","dateTime":"2021-11-20T22:42:11.291Z","isRelevant":false},{"internal_node_id":"0.0-0.0-1.0","rt":4893.199999928474,"response":" ","trial_type":"html-keyboard-response","stimulus":"<h1>Instruction</h1> You are about to begin a new task. <br> You will be asked to type as many words starting with one particular letter as you can in one minute. <br> Proper nouns will not count towards your total (proper nouns identify a single entity and are usually capitalized&mdash;for example, London, Jupiter, Sarah, and Microsoft). <br> When you are ready, please press the space bar and we will show you the letter. <br> <em>Press the space bar to begin.</em> ","time_elapsed":4895,"trial_index":0,"userId":"b07d920b-a11a-422a-a359-694608c3cd00","dateTime":"2021-11-20T22:42:16.185Z","isRelevant":false},{"internal_node_id":"0.0-0.0-2.0","response":"desk dip dog demon draft dorm dress dime doll dash dot doom dull dish","trial_type":"timed-writing","stimulus":"Starting now, type as many words starting with <span id=\"verbal-fluency-letter\">d</span> as you can in one minute. <br> Please put a space or a line break between each word. ","letter":"d","time_elapsed":64900,"trial_index":1,"userId":"b07d920b-a11a-422a-a359-694608c3cd00","dateTime":"2021-11-20T22:43:16.190Z","isRelevant":true},{"ua":"Mozilla/5.0 (Macintosh; Intel Mac OS X 10_15_7) AppleWebKit/537.36 (KHTML, like Gecko) Chrome/95.0.4638.54 Safari/537.36","userId":"b07d920b-a11a-422a-a359-694608c3cd00","dateTime":"2021-11-20T22:43:16.191Z","isRelevant":false},{"taskStarted":true,"userId":"b07d920b-a11a-422a-a359-694608c3cd00","dateTime":"2021-11-22T21:49:24.427Z","isRelevant":false},{"internal_node_id":"0.0-0.0-1.0","rt":5456.300000071526,"response":" ","trial_type":"html-keyboard-response","stimulus":"<h1>Instruction</h1> You are about to begin a new task. <br> You will be asked to type as many words starting with one particular letter as you can in one minute. <br> Proper nouns will not count towards your total (proper nouns identify a single entity and are usually capitalized&mdash;for example, London, Jupiter, Sarah, and Microsoft). <br> When you are ready, please press the space bar and we will show you the letter. <br> <em>Press the space bar to begin.</em> ","time_elapsed":5457,"trial_index":0,"userId":"b07d920b-a11a-422a-a359-694608c3cd00","dateTime":"2021-11-22T21:49:29.884Z","isRelevant":false},{"internal_node_id":"0.0-0.0-2.0","response":"sun sprite scout sound star society science same saxophone squirrel spinach spoon salon song","trial_type":"timed-writing","stimulus":"Starting now, type as many words starting with <span id=\"verbal-fluency-letter\">s</span> as you can in one minute. <br> Please put a space or a line break between each word. ","letter":"s","time_elapsed":65461,"trial_index":1,"userId":"b07d920b-a11a-422a-a359-694608c3cd00","dateTime":"2021-11-22T21:50:29.888Z","isRelevant":true},{"ua":"Mozilla/5.0 (Macintosh; Intel Mac OS X 10_15_7) AppleWebKit/537.36 (KHTML, like Gecko) Chrome/95.0.4638.54 Safari/537.36","userId":"b07d920b-a11a-422a-a359-694608c3cd00","dateTime":"2021-11-22T21:50:29.889Z","isRelevant":false},{"taskStarted":true,"userId":"22463d21-44f5-47c7-9ae1-547c9124d869","dateTime":"2021-11-09T19:44:46.225Z","isRelevant":false},{"internal_node_id":"0.0-0.0-1.0","rt":3376.400000035763,"response":" ","trial_type":"html-keyboard-response","stimulus":"<h1>Instruction</h1> You are about to begin a new task. <br> You will be asked to type as many words starting with one particular letter as you can in one minute. <br> Proper nouns will not count towards your total (proper nouns identify a single entity and are usually capitalized&mdash;for example, London, Jupiter, Sarah, and Microsoft). <br> When you are ready, please press the space bar and we will show you the letter. <br> <em>Press the space bar to begin.</em> ","time_elapsed":3380,"trial_index":0,"userId":"22463d21-44f5-47c7-9ae1-547c9124d869","dateTime":"2021-11-09T19:44:49.604Z","isRelevant":false},{"internal_node_id":"0.0-0.0-2.0","response":"apple animals asphalt asymmetric allow and at all allot a lot a angry age","trial_type":"timed-writing","stimulus":"Starting now, type as many words starting with <strong>a</strong> as you can in one minute. <br> Please put a space or a line break between each word. ","letter":"a","time_elapsed":63390,"trial_index":1,"userId":"22463d21-44f5-47c7-9ae1-547c9124d869","dateTime":"2021-11-09T19:45:49.614Z","isRelevant":true},{"ua":"Mozilla/5.0 (Macintosh; Intel Mac OS X 10_15_7) AppleWebKit/537.36 (KHTML, like Gecko) Chrome/94.0.4606.71 Safari/537.36","userId":"22463d21-44f5-47c7-9ae1-547c9124d869","dateTime":"2021-11-09T19:45:49.616Z","isRelevant":false},{"taskStarted":true,"userId":"e0a85aee-e200-43a6-8faf-e2c935aff2b9","dateTime":"2021-11-23T19:48:05.938Z","isRelevant":false},{"trial_index":0,"internal_node_id":"0.0-0.0-0.0-0.0","success":true,"trial_type":"fullscreen","time_elapsed":6433,"userId":"e0a85aee-e200-43a6-8faf-e2c935aff2b9","dateTime":"2021-11-23T19:48:12.372Z","isRelevant":false},{"internal_node_id":"0.0-0.0-1.0","rt":5993.300000071526,"response":" ","trial_type":"html-keyboard-response","stimulus":"<h1>Instruction</h1> You are about to begin a new task. <br> You will be asked to type as many words starting with one particular letter as you can in one minute. <br> Proper nouns will not count towards your total (proper nouns identify a single entity and are usually capitalized&mdash;for example, London, Jupiter, Sarah, and Microsoft). <br> When you are ready, please press the space bar and we will show you the letter. <br> <em>Press the space bar to begin.</em> ","time_elapsed":12429,"trial_index":1,"userId":"e0a85aee-e200-43a6-8faf-e2c935aff2b9","dateTime":"2021-11-23T19:48:18.367Z","isRelevant":false},{"internal_node_id":"0.0-0.0-2.0","response":"S -first day","trial_type":"timed-writing","stimulus":"Starting now, type as many words starting with <span id=\"verbal-fluency-letter\">s</span> as you can in one minute. <br> Please put a space or a line break between each word. ","letter":"s","time_elapsed":72438,"trial_index":2,"userId":"e0a85aee-e200-43a6-8faf-e2c935aff2b9","dateTime":"2021-11-23T19:49:18.376Z","isRelevant":true},{"ua":"Mozilla/5.0 (Macintosh; Intel Mac OS X 10_15_7) AppleWebKit/537.36 (KHTML, like Gecko) Chrome/95.0.4638.54 Safari/537.36","userId":"e0a85aee-e200-43a6-8faf-e2c935aff2b9","dateTime":"2021-11-23T19:49:18.378Z","isRelevant":false},{"taskStarted":true,"userId":"e0a85aee-e200-43a6-8faf-e2c935aff2b9","dateTime":"2021-11-23T19:49:31.593Z","isRelevant":false},{"trial_index":0,"internal_node_id":"0.0-0.0-0.0-0.0","success":true,"trial_type":"fullscreen","time_elapsed":1436,"userId":"e0a85aee-e200-43a6-8faf-e2c935aff2b9","dateTime":"2021-11-23T19:49:33.029Z","isRelevant":false},{"internal_node_id":"0.0-0.0-1.0","rt":2670.600000023842,"response":" ","trial_type":"html-keyboard-response","stimulus":"<h1>Instruction</h1> You are about to begin a new task. <br> You will be asked to type as many words starting with one particular letter as you can in one minute. <br> Proper nouns will not count towards your total (proper nouns identify a single entity and are usually capitalized&mdash;for example, London, Jupiter, Sarah, and Microsoft). <br> When you are ready, please press the space bar and we will show you the letter. <br> <em>Press the space bar to begin.</em> ","time_elapsed":4108,"trial_index":1,"userId":"e0a85aee-e200-43a6-8faf-e2c935aff2b9","dateTime":"2021-11-23T19:49:35.701Z","isRelevant":false},{"internal_node_id":"0.0-0.0-2.0","response":"c 2nd day","trial_type":"timed-writing","stimulus":"Starting now, type as many words starting with <span id=\"verbal-fluency-letter\">c</span> as you can in one minute. <br> Please put a space or a line break between each word. ","letter":"c","time_elapsed":64661,"trial_index":2,"userId":"e0a85aee-e200-43a6-8faf-e2c935aff2b9","dateTime":"2021-11-23T19:50:36.254Z","isRelevant":true},{"ua":"Mozilla/5.0 (Macintosh; Intel Mac OS X 10_15_7) AppleWebKit/537.36 (KHTML, like Gecko) Chrome/95.0.4638.54 Safari/537.36","userId":"e0a85aee-e200-43a6-8faf-e2c935aff2b9","dateTime":"2021-11-23T19:50:36.258Z","isRelevant":false},{"taskStarted":true,"userId":"e0a85aee-e200-43a6-8faf-e2c935aff2b9","dateTime":"2021-11-23T19:50:50.810Z","isRelevant":false},{"trial_index":0,"internal_node_id":"0.0-0.0-0.0-0.0","success":true,"trial_type":"fullscreen","time_elapsed":1262,"userId":"e0a85aee-e200-43a6-8faf-e2c935aff2b9","dateTime":"2021-11-23T19:50:52.072Z","isRelevant":false},{"internal_node_id":"0.0-0.0-1.0","rt":1983.1000000238419,"response":" ","trial_type":"html-keyboard-response","stimulus":"<h1>Instruction</h1> You are about to begin a new task. <br> You will be asked to type as many words starting with one particular letter as you can in one minute. <br> Proper nouns will not count towards your total (proper nouns identify a single entity and are usually capitalized&mdash;for example, London, Jupiter, Sarah, and Microsoft). <br> When you are ready, please press the space bar and we will show you the letter. <br> <em>Press the space bar to begin.</em> ","time_elapsed":3247,"trial_index":1,"userId":"e0a85aee-e200-43a6-8faf-e2c935aff2b9","dateTime":"2021-11-23T19:50:54.057Z","isRelevant":false},{"internal_node_id":"0.0-0.0-2.0","response":"d 3rd day","trial_type":"timed-writing","stimulus":"Starting now, type as many words starting with <span id=\"verbal-fluency-letter\">d</span> as you can in one minute. <br> Please put a space or a line break between each word. ","letter":"d","time_elapsed":63251,"trial_index":2,"userId":"e0a85aee-e200-43a6-8faf-e2c935aff2b9","dateTime":"2021-11-23T19:51:54.061Z","isRelevant":true},{"ua":"Mozilla/5.0 (Macintosh; Intel Mac OS X 10_15_7) AppleWebKit/537.36 (KHTML, like Gecko) Chrome/95.0.4638.54 Safari/537.36","userId":"e0a85aee-e200-43a6-8faf-e2c935aff2b9","dateTime":"2021-11-23T19:51:54.066Z","isRelevant":false},{"taskStarted":true,"userId":"e0a85aee-e200-43a6-8faf-e2c935aff2b9","dateTime":"2021-11-23T19:56:24.748Z","isRelevant":false},{"trial_index":0,"internal_node_id":"0.0-0.0-0.0-0.0","success":true,"trial_type":"fullscreen","time_elapsed":1275,"userId":"e0a85aee-e200-43a6-8faf-e2c935aff2b9","dateTime":"2021-11-23T19:56:26.023Z","isRelevant":false},{"internal_node_id":"0.0-0.0-1.0","rt":1623.7000000476837,"response":" ","trial_type":"html-keyboard-response","stimulus":"<h1>Instruction</h1> You are about to begin a new task. <br> You will be asked to type as many words starting with one particular letter as you can in one minute. <br> Proper nouns will not count towards your total (proper nouns identify a single entity and are usually capitalized&mdash;for example, London, Jupiter, Sarah, and Microsoft). <br> When you are ready, please press the space bar and we will show you the letter. <br> <em>Press the space bar to begin.</em> ","time_elapsed":2900,"trial_index":1,"userId":"e0a85aee-e200-43a6-8faf-e2c935aff2b9","dateTime":"2021-11-23T19:56:27.649Z","isRelevant":false},{"internal_node_id":"0.0-0.0-2.0","response":"a 4th day","trial_type":"timed-writing","stimulus":"Starting now, type as many words starting with <span id=\"verbal-fluency-letter\">a</span> as you can in one minute. <br> Please put a space or a line break between each word. ","letter":"a","time_elapsed":62907,"trial_index":2,"userId":"e0a85aee-e200-43a6-8faf-e2c935aff2b9","dateTime":"2021-11-23T19:57:27.655Z","isRelevant":true},{"ua":"Mozilla/5.0 (Macintosh; Intel Mac OS X 10_15_7) AppleWebKit/537.36 (KHTML, like Gecko) Chrome/95.0.4638.54 Safari/537.36","userId":"e0a85aee-e200-43a6-8faf-e2c935aff2b9","dateTime":"2021-11-23T19:57:27.658Z","isRelevant":false},{"taskStarted":true,"userId":"e0a85aee-e200-43a6-8faf-e2c935aff2b9","dateTime":"2021-11-23T19:57:36.167Z","isRelevant":false},{"trial_index":0,"internal_node_id":"0.0-0.0-0.0-0.0","success":true,"trial_type":"fullscreen","time_elapsed":1194,"userId":"e0a85aee-e200-43a6-8faf-e2c935aff2b9","dateTime":"2021-11-23T19:57:37.360Z","isRelevant":false},{"internal_node_id":"0.0-0.0-1.0","rt":1742.5,"response":" ","trial_type":"html-keyboard-response","stimulus":"<h1>Instruction</h1> You are about to begin a new task. <br> You will be asked to type as many words starting with one particular letter as you can in one minute. <br> Proper nouns will not count towards your total (proper nouns identify a single entity and are usually capitalized&mdash;for example, London, Jupiter, Sarah, and Microsoft). <br> When you are ready, please press the space bar and we will show you the letter. <br> <em>Press the space bar to begin.</em> ","time_elapsed":2938,"trial_index":1,"userId":"e0a85aee-e200-43a6-8faf-e2c935aff2b9","dateTime":"2021-11-23T19:57:39.104Z","isRelevant":false},{"internal_node_id":"0.0-0.0-2.0","response":"f 5th day","trial_type":"timed-writing","stimulus":"Starting now, type as many words starting with <span id=\"verbal-fluency-letter\">f</span> as you can in one minute. <br> Please put a space or a line break between each word. ","letter":"f","time_elapsed":62943,"trial_index":2,"userId":"e0a85aee-e200-43a6-8faf-e2c935aff2b9","dateTime":"2021-11-23T19:58:39.109Z","isRelevant":true},{"ua":"Mozilla/5.0 (Macintosh; Intel Mac OS X 10_15_7) AppleWebKit/537.36 (KHTML, like Gecko) Chrome/95.0.4638.54 Safari/537.36","userId":"e0a85aee-e200-43a6-8faf-e2c935aff2b9","dateTime":"2021-11-23T19:58:39.113Z","isRelevant":false},{"taskStarted":true,"userId":"e0a85aee-e200-43a6-8faf-e2c935aff2b9","dateTime":"2021-11-23T19:58:47.947Z","isRelevant":false},{"trial_index":0,"internal_node_id":"0.0-0.0-0.0-0.0","success":true,"trial_type":"fullscreen","time_elapsed":1947,"userId":"e0a85aee-e200-43a6-8faf-e2c935aff2b9","dateTime":"2021-11-23T19:58:49.894Z","isRelevant":false},{"internal_node_id":"0.0-0.0-1.0","rt":2839.5,"response":" ","trial_type":"html-keyboard-response","stimulus":"<h1>Instruction</h1> You are about to begin a new task. <br> You will be asked to type as many words starting with one particular letter as you can in one minute. <br> Proper nouns will not count towards your total (proper nouns identify a single entity and are usually capitalized&mdash;for example, London, Jupiter, Sarah, and Microsoft). <br> When you are ready, please press the space bar and we will show you the letter. <br> <em>Press the space bar to begin.</em> ","time_elapsed":4788,"trial_index":1,"userId":"e0a85aee-e200-43a6-8faf-e2c935aff2b9","dateTime":"2021-11-23T19:58:52.735Z","isRelevant":false},{"internal_node_id":"0.0-0.0-2.0","response":"p 6th day","trial_type":"timed-writing","stimulus":"Starting now, type as many words starting with <span id=\"verbal-fluency-letter\">p</span> as you can in one minute. <br> Please put a space or a line break between each word. ","letter":"p","time_elapsed":64791,"trial_index":2,"userId":"e0a85aee-e200-43a6-8faf-e2c935aff2b9","dateTime":"2021-11-23T19:59:52.738Z","isRelevant":true},{"ua":"Mozilla/5.0 (Macintosh; Intel Mac OS X 10_15_7) AppleWebKit/537.36 (KHTML, like Gecko) Chrome/95.0.4638.54 Safari/537.36","userId":"e0a85aee-e200-43a6-8faf-e2c935aff2b9","dateTime":"2021-11-23T19:59:52.743Z","isRelevant":false},{"taskStarted":true,"userId":"1e7afe8d-bc84-463f-bd6e-c9bd987464be","dateTime":"2021-11-17T16:19:03.114Z","isRelevant":false},{"internal_node_id":"0.0-0.0-1.0","rt":71372,"response":" ","trial_type":"html-keyboard-response","stimulus":"<h1>Instruction</h1> You are about to begin a new task. <br> You will be asked to type as many words starting with one particular letter as you can in one minute. <br> Proper nouns will not count towards your total (proper nouns identify a single entity and are usually capitalized&mdash;for example, London, Jupiter, Sarah, and Microsoft). <br> When you are ready, please press the space bar and we will show you the letter. <br> <em>Press the space bar to begin.</em> ","time_elapsed":71373,"trial_index":0,"userId":"1e7afe8d-bc84-463f-bd6e-c9bd987464be","dateTime":"2021-11-17T16:20:14.487Z","isRelevant":false},{"internal_node_id":"0.0-0.0-2.0","response":"pause period panel pineapple post paper powerpoint point power persistence powerbank ","trial_type":"timed-writing","stimulus":"Starting now, type as many words starting with <span id=\"verbal-fluency-letter\">p</span> as you can in one minute. <br> Please put a space or a line break between each word. ","letter":"p","time_elapsed":131376,"trial_index":1,"userId":"1e7afe8d-bc84-463f-bd6e-c9bd987464be","dateTime":"2021-11-17T16:21:14.491Z","isRelevant":true},{"ua":"Mozilla/5.0 (Windows NT 10.0; Win64; x64; rv:91.0) Gecko/20100101 Firefox/91.0","userId":"1e7afe8d-bc84-463f-bd6e-c9bd987464be","dateTime":"2021-11-17T16:21:14.493Z","isRelevant":false},{"taskStarted":true,"userId":"1e7afe8d-bc84-463f-bd6e-c9bd987464be","dateTime":"2021-11-17T20:12:59.224Z","isRelevant":false},{"internal_node_id":"0.0-0.0-1.0","rt":14929,"response":" ","trial_type":"html-keyboard-response","stimulus":"<h1>Instruction</h1> You are about to begin a new task. <br> You will be asked to type as many words starting with one particular letter as you can in one minute. <br> Proper nouns will not count towards your total (proper nouns identify a single entity and are usually capitalized&mdash;for example, London, Jupiter, Sarah, and Microsoft). <br> When you are ready, please press the space bar and we will show you the letter. <br> <em>Press the space bar to begin.</em> ","time_elapsed":14932,"trial_index":0,"userId":"1e7afe8d-bc84-463f-bd6e-c9bd987464be","dateTime":"2021-11-17T20:13:14.156Z","isRelevant":false},{"internal_node_id":"0.0-0.0-2.0","response":"solid\nsun\nsurviver\nsuncream\nsunset\nsummer\nserious\nsanity\nshine\nsheep\nsaturation\nsauna\nsenior\nsoil\nsoy\nsuburb\nscene\nsecret\n","trial_type":"timed-writing","stimulus":"Starting now, type as many words starting with <span id=\"verbal-fluency-letter\">s</span> as you can in one minute. <br> Please put a space or a line break between each word. ","letter":"s","time_elapsed":74936,"trial_index":1,"userId":"1e7afe8d-bc84-463f-bd6e-c9bd987464be","dateTime":"2021-11-17T20:14:14.160Z","isRelevant":true},{"ua":"Mozilla/5.0 (Windows NT 10.0; Win64; x64; rv:91.0) Gecko/20100101 Firefox/91.0","userId":"1e7afe8d-bc84-463f-bd6e-c9bd987464be","dateTime":"2021-11-17T20:14:14.162Z","isRelevant":false},{"taskStarted":true,"userId":"1e7afe8d-bc84-463f-bd6e-c9bd987464be","dateTime":"2021-11-18T12:40:32.910Z","isRelevant":false},{"internal_node_id":"0.0-0.0-1.0","rt":9677,"response":" ","trial_type":"html-keyboard-response","stimulus":"<h1>Instruction</h1> You are about to begin a new task. <br> You will be asked to type as many words starting with one particular letter as you can in one minute. <br> Proper nouns will not count towards your total (proper nouns identify a single entity and are usually capitalized&mdash;for example, London, Jupiter, Sarah, and Microsoft). <br> When you are ready, please press the space bar and we will show you the letter. <br> <em>Press the space bar to begin.</em> ","time_elapsed":9678,"trial_index":0,"userId":"1e7afe8d-bc84-463f-bd6e-c9bd987464be","dateTime":"2021-11-18T12:40:42.588Z","isRelevant":false},{"internal_node_id":"0.0-0.0-2.0","response":"apple\naverage\nafter\nanalysis\nant\nacceptance\naffirmation\nanswer\na","trial_type":"timed-writing","stimulus":"Starting now, type as many words starting with <span id=\"verbal-fluency-letter\">a</span> as you can in one minute. <br> Please put a space or a line break between each word. ","letter":"a","time_elapsed":69683,"trial_index":1,"userId":"1e7afe8d-bc84-463f-bd6e-c9bd987464be","dateTime":"2021-11-18T12:41:42.593Z","isRelevant":true},{"ua":"Mozilla/5.0 (Windows NT 10.0; Win64; x64; rv:91.0) Gecko/20100101 Firefox/91.0","userId":"1e7afe8d-bc84-463f-bd6e-c9bd987464be","dateTime":"2021-11-18T12:41:42.594Z","isRelevant":false},{"taskStarted":true,"userId":"1e7afe8d-bc84-463f-bd6e-c9bd987464be","dateTime":"2021-11-18T16:01:49.537Z","isRelevant":false},{"internal_node_id":"0.0-0.0-1.0","rt":13736,"response":" ","trial_type":"html-keyboard-response","stimulus":"<h1>Instruction</h1> You are about to begin a new task. <br> You will be asked to type as many words starting with one particular letter as you can in one minute. <br> Proper nouns will not count towards your total (proper nouns identify a single entity and are usually capitalized&mdash;for example, London, Jupiter, Sarah, and Microsoft). <br> When you are ready, please press the space bar and we will show you the letter. <br> <em>Press the space bar to begin.</em> ","time_elapsed":13738,"trial_index":0,"userId":"1e7afe8d-bc84-463f-bd6e-c9bd987464be","dateTime":"2021-11-18T16:02:03.275Z","isRelevant":false},{"internal_node_id":"0.0-0.0-2.0","response":"corn\nclown\ncloud\ncover\ncow\ncowboy\ncattle\ncoolness\ncave\nconvenience\ncooperation\ncollaboration\ncoworkers\ncoauthors\ncountdown\ncommunicaiton\n","trial_type":"timed-writing","stimulus":"Starting now, type as many words starting with <span id=\"verbal-fluency-letter\">c</span> as you can in one minute. <br> Please put a space or a line break between each word. ","letter":"c","time_elapsed":73747,"trial_index":1,"userId":"1e7afe8d-bc84-463f-bd6e-c9bd987464be","dateTime":"2021-11-18T16:03:03.284Z","isRelevant":true},{"ua":"Mozilla/5.0 (Windows NT 10.0; Win64; x64; rv:91.0) Gecko/20100101 Firefox/91.0","userId":"1e7afe8d-bc84-463f-bd6e-c9bd987464be","dateTime":"2021-11-18T16:03:03.286Z","isRelevant":false},{"taskStarted":true,"userId":"1e7afe8d-bc84-463f-bd6e-c9bd987464be","dateTime":"2021-11-19T20:18:08.593Z","isRelevant":false},{"internal_node_id":"0.0-0.0-1.0","rt":315678,"response":" ","trial_type":"html-keyboard-response","stimulus":"<h1>Instruction</h1> You are about to begin a new task. <br> You will be asked to type as many words starting with one particular letter as you can in one minute. <br> Proper nouns will not count towards your total (proper nouns identify a single entity and are usually capitalized&mdash;for example, London, Jupiter, Sarah, and Microsoft). <br> When you are ready, please press the space bar and we will show you the letter. <br> <em>Press the space bar to begin.</em> ","time_elapsed":315681,"trial_index":0,"userId":"1e7afe8d-bc84-463f-bd6e-c9bd987464be","dateTime":"2021-11-19T20:23:24.274Z","isRelevant":false},{"internal_node_id":"0.0-0.0-2.0","response":"door\ndonout\ndexter\ndisease\ndose\ndeer\ndirt\ndust\ndoll\n","trial_type":"timed-writing","stimulus":"Starting now, type as many words starting with <span id=\"verbal-fluency-letter\">d</span> as you can in one minute. <br> Please put a space or a line break between each word. ","letter":"d","time_elapsed":375691,"trial_index":1,"userId":"1e7afe8d-bc84-463f-bd6e-c9bd987464be","dateTime":"2021-11-19T20:24:24.284Z","isRelevant":true},{"ua":"Mozilla/5.0 (Windows NT 10.0; Win64; x64; rv:91.0) Gecko/20100101 Firefox/91.0","userId":"1e7afe8d-bc84-463f-bd6e-c9bd987464be","dateTime":"2021-11-19T20:24:24.287Z","isRelevant":false},{"taskStarted":true,"userId":"165fd106-8a5c-4705-8441-3beaa87dbda4","dateTime":"2021-11-15T18:21:43.763Z","isRelevant":false},{"internal_node_id":"0.0-0.0-1.0","rt":23453,"response":" ","trial_type":"html-keyboard-response","stimulus":"<h1>Instruction</h1> You are about to begin a new task. <br> You will be asked to type as many words starting with one particular letter as you can in one minute. <br> Proper nouns will not count towards your total (proper nouns identify a single entity and are usually capitalized&mdash;for example, London, Jupiter, Sarah, and Microsoft). <br> When you are ready, please press the space bar and we will show you the letter. <br> <em>Press the space bar to begin.</em> ","time_elapsed":23456,"trial_index":0,"userId":"165fd106-8a5c-4705-8441-3beaa87dbda4","dateTime":"2021-11-15T18:22:07.219Z","isRelevant":false},{"internal_node_id":"0.0-0.0-2.0","response":"paper\npepper\npage\npin\npick\npass\npee\npeep\nplus\npleasant\nplain\nplease\npause\npack\npatch\npumpkin\npine\npint\n","trial_type":"timed-writing","stimulus":"Starting now, type as many words starting with <strong>p</strong> as you can in one minute. <br> Please put a space or a line break between each word. ","letter":"p","time_elapsed":83504,"trial_index":1,"userId":"165fd106-8a5c-4705-8441-3beaa87dbda4","dateTime":"2021-11-15T18:23:07.267Z","isRelevant":true},{"ua":"Mozilla/5.0 (Macintosh; Intel Mac OS X 10_15_7) AppleWebKit/605.1.15 (KHTML, like Gecko) Version/15.0 Safari/605.1.15","userId":"165fd106-8a5c-4705-8441-3beaa87dbda4","dateTime":"2021-11-15T18:23:07.269Z","isRelevant":false},{"taskStarted":true,"userId":"165fd106-8a5c-4705-8441-3beaa87dbda4","dateTime":"2021-11-16T22:54:07.821Z","isRelevant":false},{"internal_node_id":"0.0-0.0-1.0","rt":11344,"response":" ","trial_type":"html-keyboard-response","stimulus":"<h1>Instruction</h1> You are about to begin a new task. <br> You will be asked to type as many words starting with one particular letter as you can in one minute. <br> Proper nouns will not count towards your total (proper nouns identify a single entity and are usually capitalized&mdash;for example, London, Jupiter, Sarah, and Microsoft). <br> When you are ready, please press the space bar and we will show you the letter. <br> <em>Press the space bar to begin.</em> ","time_elapsed":11353,"trial_index":0,"userId":"165fd106-8a5c-4705-8441-3beaa87dbda4","dateTime":"2021-11-16T22:54:19.174Z","isRelevant":false},{"internal_node_id":"0.0-0.0-2.0","response":"dear\ndeer\ndeep\ndead\ndid\ndone\nditch\ndepend\ndependable\ndivide\ndestination\ndetermine\ndetect\ndismiss\ndelectabl","trial_type":"timed-writing","stimulus":"Starting now, type as many words starting with <span id=\"verbal-fluency-letter\">d</span> as you can in one minute. <br> Please put a space or a line break between each word. ","letter":"d","time_elapsed":71387,"trial_index":1,"userId":"165fd106-8a5c-4705-8441-3beaa87dbda4","dateTime":"2021-11-16T22:55:19.208Z","isRelevant":true},{"ua":"Mozilla/5.0 (Macintosh; Intel Mac OS X 10_15_7) AppleWebKit/605.1.15 (KHTML, like Gecko) Version/15.0 Safari/605.1.15","userId":"165fd106-8a5c-4705-8441-3beaa87dbda4","dateTime":"2021-11-16T22:55:19.212Z","isRelevant":false},{"taskStarted":true,"userId":"165fd106-8a5c-4705-8441-3beaa87dbda4","dateTime":"2021-11-17T17:12:28.896Z","isRelevant":false},{"internal_node_id":"0.0-0.0-1.0","rt":37298,"response":" ","trial_type":"html-keyboard-response","stimulus":"<h1>Instruction</h1> You are about to begin a new task. <br> You will be asked to type as many words starting with one particular letter as you can in one minute. <br> Proper nouns will not count towards your total (proper nouns identify a single entity and are usually capitalized&mdash;for example, London, Jupiter, Sarah, and Microsoft). <br> When you are ready, please press the space bar and we will show you the letter. <br> <em>Press the space bar to begin.</em> ","time_elapsed":37302,"trial_index":0,"userId":"165fd106-8a5c-4705-8441-3beaa87dbda4","dateTime":"2021-11-17T17:13:06.198Z","isRelevant":false},{"internal_node_id":"0.0-0.0-2.0","response":"fair\nfleet\nflee\nflight\nfly\nflea\nfight\nfine\nfetch\nfantastic\nfabulous\nfreedom\nfrighten\nfrightened\nfun\nfact\nfunk\n","trial_type":"timed-writing","stimulus":"Starting now, type as many words starting with <span id=\"verbal-fluency-letter\">f</span> as you can in one minute. <br> Please put a space or a line break between each word. ","letter":"f","time_elapsed":97337,"trial_index":1,"userId":"165fd106-8a5c-4705-8441-3beaa87dbda4","dateTime":"2021-11-17T17:14:06.233Z","isRelevant":true},{"ua":"Mozilla/5.0 (Macintosh; Intel Mac OS X 10_15_7) AppleWebKit/605.1.15 (KHTML, like Gecko) Version/15.0 Safari/605.1.15","userId":"165fd106-8a5c-4705-8441-3beaa87dbda4","dateTime":"2021-11-17T17:14:06.235Z","isRelevant":false},{"taskStarted":true,"userId":"165fd106-8a5c-4705-8441-3beaa87dbda4","dateTime":"2021-11-18T00:43:19.977Z","isRelevant":false},{"internal_node_id":"0.0-0.0-1.0","rt":9672.000000000116,"response":" ","trial_type":"html-keyboard-response","stimulus":"<h1>Instruction</h1> You are about to begin a new task. <br> You will be asked to type as many words starting with one particular letter as you can in one minute. <br> Proper nouns will not count towards your total (proper nouns identify a single entity and are usually capitalized&mdash;for example, London, Jupiter, Sarah, and Microsoft). <br> When you are ready, please press the space bar and we will show you the letter. <br> <em>Press the space bar to begin.</em> ","time_elapsed":9676,"trial_index":0,"userId":"165fd106-8a5c-4705-8441-3beaa87dbda4","dateTime":"2021-11-18T00:43:29.653Z","isRelevant":false},{"internal_node_id":"0.0-0.0-2.0","response":"super\nsupper\nspace\nsound\nsign\nsing\nslump\nslouch\nsludge\nshake\nshout\nsham\nshambles\nsuperstitious\nsuperlative\nsanctuary\n","trial_type":"timed-writing","stimulus":"Starting now, type as many words starting with <span id=\"verbal-fluency-letter\">s</span> as you can in one minute. <br> Please put a space or a line break between each word. ","letter":"s","time_elapsed":69678,"trial_index":1,"userId":"165fd106-8a5c-4705-8441-3beaa87dbda4","dateTime":"2021-11-18T00:44:29.655Z","isRelevant":true},{"ua":"Mozilla/5.0 (Macintosh; Intel Mac OS X 10_15_7) AppleWebKit/605.1.15 (KHTML, like Gecko) Version/15.0 Safari/605.1.15","userId":"165fd106-8a5c-4705-8441-3beaa87dbda4","dateTime":"2021-11-18T00:44:29.659Z","isRelevant":false},{"taskStarted":true,"userId":"165fd106-8a5c-4705-8441-3beaa87dbda4","dateTime":"2021-11-19T02:15:38.051Z","isRelevant":false},{"internal_node_id":"0.0-0.0-1.0","rt":5525.000000000466,"response":" ","trial_type":"html-keyboard-response","stimulus":"<h1>Instruction</h1> You are about to begin a new task. <br> You will be asked to type as many words starting with one particular letter as you can in one minute. <br> Proper nouns will not count towards your total (proper nouns identify a single entity and are usually capitalized&mdash;for example, London, Jupiter, Sarah, and Microsoft). <br> When you are ready, please press the space bar and we will show you the letter. <br> <em>Press the space bar to begin.</em> ","time_elapsed":5529,"trial_index":0,"userId":"165fd106-8a5c-4705-8441-3beaa87dbda4","dateTime":"2021-11-19T02:15:43.580Z","isRelevant":false},{"internal_node_id":"0.0-0.0-2.0","response":"catch\ncaught\ncry\ncrib\ncrime\ncut\ncult\ncycle\ncinch\nclap\ncorrupt\ncrunch\ncreed\ncredible\ncredit\ncringe","trial_type":"timed-writing","stimulus":"Starting now, type as many words starting with <span id=\"verbal-fluency-letter\">c</span> as you can in one minute. <br> Please put a space or a line break between each word. ","letter":"c","time_elapsed":65541,"trial_index":1,"userId":"165fd106-8a5c-4705-8441-3beaa87dbda4","dateTime":"2021-11-19T02:16:43.592Z","isRelevant":true},{"ua":"Mozilla/5.0 (Macintosh; Intel Mac OS X 10_15_7) AppleWebKit/605.1.15 (KHTML, like Gecko) Version/15.0 Safari/605.1.15","userId":"165fd106-8a5c-4705-8441-3beaa87dbda4","dateTime":"2021-11-19T02:16:43.596Z","isRelevant":false},{"taskStarted":true,"userId":"a39c0907-29e6-4c85-9188-b21b04ca17a6","dateTime":"2021-11-03T22:21:09.629Z","isRelevant":false},{"internal_node_id":"0.0-0.0-1.0","response":" ","rt":10105.099999904633,"stimulus":"<h1>Instruction</h1> You are about to begin a new task. <br> You will be asked to type as many words starting with one particular letter as you can in one minute. <br> Proper nouns will not count towards your total (proper nouns identify a single entity and are usually capitalized&mdash;for example, London, Jupiter, Sarah, and Microsoft). <br> When you are ready, please press the space bar and we will show you the letter. <br> <em>Press the space bar to begin.</em> ","time_elapsed":10109,"trial_index":0,"trial_type":"html-keyboard-response","userId":"a39c0907-29e6-4c85-9188-b21b04ca17a6","dateTime":"2021-11-03T22:21:19.737Z","isRelevant":false},{"internal_node_id":"0.0-0.0-2.0","letter":"p","response":"posture\nposting\npoker\npawnstore\nparty \npanda\nprayer\nprada","stimulus":"Starting now, type as many words starting with <strong>p</strong> as you can in one minute. <br> Please put a space or a line break between each word. ","time_elapsed":70121,"trial_index":1,"trial_type":"timed-writing","userId":"a39c0907-29e6-4c85-9188-b21b04ca17a6","dateTime":"2021-11-03T22:22:19.749Z","isRelevant":true},{"ua":"Mozilla/5.0 (Macintosh; Intel Mac OS X 10_15_7) AppleWebKit/537.36 (KHTML, like Gecko) Chrome/95.0.4638.54 Safari/537.36","userId":"a39c0907-29e6-4c85-9188-b21b04ca17a6","dateTime":"2021-11-03T22:22:19.751Z","isRelevant":false},{"taskStarted":true,"userId":"a39c0907-29e6-4c85-9188-b21b04ca17a6","dateTime":"2021-11-04T16:39:47.348Z","isRelevant":false},{"internal_node_id":"0.0-0.0-1.0","response":" ","rt":14534.200000286102,"stimulus":"<h1>Instruction</h1> You are about to begin a new task. <br> You will be asked to type as many words starting with one particular letter as you can in one minute. <br> Proper nouns will not count towards your total (proper nouns identify a single entity and are usually capitalized&mdash;for example, London, Jupiter, Sarah, and Microsoft). <br> When you are ready, please press the space bar and we will show you the letter. <br> <em>Press the space bar to begin.</em> ","time_elapsed":14541,"trial_index":0,"trial_type":"html-keyboard-response","userId":"a39c0907-29e6-4c85-9188-b21b04ca17a6","dateTime":"2021-11-04T16:40:01.887Z","isRelevant":false},{"internal_node_id":"0.0-0.0-2.0","letter":"p","response":"partner\nposture\nparty\npain\nprozac \nprogression\npacers\npad","stimulus":"Starting now, type as many words starting with <strong>p</strong> as you can in one minute. <br> Please put a space or a line break between each word. ","time_elapsed":74553,"trial_index":1,"trial_type":"timed-writing","userId":"a39c0907-29e6-4c85-9188-b21b04ca17a6","dateTime":"2021-11-04T16:41:01.899Z","isRelevant":true},{"ua":"Mozilla/5.0 (Macintosh; Intel Mac OS X 10_15_7) AppleWebKit/537.36 (KHTML, like Gecko) Chrome/95.0.4638.54 Safari/537.36","userId":"a39c0907-29e6-4c85-9188-b21b04ca17a6","dateTime":"2021-11-04T16:41:01.902Z","isRelevant":false},{"taskStarted":true,"userId":"a39c0907-29e6-4c85-9188-b21b04ca17a6","dateTime":"2021-11-05T16:31:02.026Z","isRelevant":false},{"internal_node_id":"0.0-0.0-1.0","response":" ","rt":70003.40000009537,"stimulus":"<h1>Instruction</h1> You are about to begin a new task. <br> You will be asked to type as many words starting with one particular letter as you can in one minute. <br> Proper nouns will not count towards your total (proper nouns identify a single entity and are usually capitalized&mdash;for example, London, Jupiter, Sarah, and Microsoft). <br> When you are ready, please press the space bar and we will show you the letter. <br> <em>Press the space bar to begin.</em> ","time_elapsed":70007,"trial_index":0,"trial_type":"html-keyboard-response","userId":"a39c0907-29e6-4c85-9188-b21b04ca17a6","dateTime":"2021-11-05T16:32:12.032Z","isRelevant":false},{"internal_node_id":"0.0-0.0-2.0","letter":"c","response":"cat\ncar\ncustomer\ncost\ncustom\nculture\nconstruction\nconsole\nconsistent\nconsideration\nconservation\nchemistry","stimulus":"Starting now, type as many words starting with <strong>c</strong> as you can in one minute. <br> Please put a space or a line break between each word. ","time_elapsed":130017,"trial_index":1,"trial_type":"timed-writing","userId":"a39c0907-29e6-4c85-9188-b21b04ca17a6","dateTime":"2021-11-05T16:33:12.043Z","isRelevant":true},{"ua":"Mozilla/5.0 (Macintosh; Intel Mac OS X 10_15_7) AppleWebKit/537.36 (KHTML, like Gecko) Chrome/95.0.4638.54 Safari/537.36","userId":"a39c0907-29e6-4c85-9188-b21b04ca17a6","dateTime":"2021-11-05T16:33:12.044Z","isRelevant":false},{"taskStarted":true,"userId":"a39c0907-29e6-4c85-9188-b21b04ca17a6","dateTime":"2021-11-07T22:40:30.174Z","isRelevant":false},{"internal_node_id":"0.0-0.0-1.0","rt":11302.5,"response":" ","trial_type":"html-keyboard-response","stimulus":"<h1>Instruction</h1> You are about to begin a new task. <br> You will be asked to type as many words starting with one particular letter as you can in one minute. <br> Proper nouns will not count towards your total (proper nouns identify a single entity and are usually capitalized&mdash;for example, London, Jupiter, Sarah, and Microsoft). <br> When you are ready, please press the space bar and we will show you the letter. <br> <em>Press the space bar to begin.</em> ","time_elapsed":11307,"trial_index":0,"userId":"a39c0907-29e6-4c85-9188-b21b04ca17a6","dateTime":"2021-11-07T22:40:41.481Z","isRelevant":false},{"internal_node_id":"0.0-0.0-2.0","response":"dock\ndragon\ndecades\ndynamic\ndevotion \ndedication \ndelightful\ndawn\ndune","trial_type":"timed-writing","stimulus":"Starting now, type as many words starting with <strong>d</strong> as you can in one minute. <br> Please put a space or a line break between each word. ","letter":"d","time_elapsed":71320,"trial_index":1,"userId":"a39c0907-29e6-4c85-9188-b21b04ca17a6","dateTime":"2021-11-07T22:41:41.494Z","isRelevant":true},{"ua":"Mozilla/5.0 (Macintosh; Intel Mac OS X 10_15_7) AppleWebKit/537.36 (KHTML, like Gecko) Chrome/95.0.4638.69 Safari/537.36","userId":"a39c0907-29e6-4c85-9188-b21b04ca17a6","dateTime":"2021-11-07T22:41:41.496Z","isRelevant":false},{"taskStarted":true,"userId":"a39c0907-29e6-4c85-9188-b21b04ca17a6","dateTime":"2021-11-09T18:38:41.725Z","isRelevant":false},{"internal_node_id":"0.0-0.0-1.0","rt":284238.5,"response":" ","trial_type":"html-keyboard-response","stimulus":"<h1>Instruction</h1> You are about to begin a new task. <br> You will be asked to type as many words starting with one particular letter as you can in one minute. <br> Proper nouns will not count towards your total (proper nouns identify a single entity and are usually capitalized&mdash;for example, London, Jupiter, Sarah, and Microsoft). <br> When you are ready, please press the space bar and we will show you the letter. <br> <em>Press the space bar to begin.</em> ","time_elapsed":284244,"trial_index":0,"userId":"a39c0907-29e6-4c85-9188-b21b04ca17a6","dateTime":"2021-11-09T18:43:25.970Z","isRelevant":false},{"internal_node_id":"0.0-0.0-2.0","response":"apple\nairplane\nairport\nAwesome \napp\nAquarium \n","trial_type":"timed-writing","stimulus":"Starting now, type as many words starting with <strong>a</strong> as you can in one minute. <br> Please put a space or a line break between each word. ","letter":"a","time_elapsed":344254,"trial_index":1,"userId":"a39c0907-29e6-4c85-9188-b21b04ca17a6","dateTime":"2021-11-09T18:44:25.980Z","isRelevant":true},{"ua":"Mozilla/5.0 (Macintosh; Intel Mac OS X 10_15_7) AppleWebKit/537.36 (KHTML, like Gecko) Chrome/95.0.4638.69 Safari/537.36","userId":"a39c0907-29e6-4c85-9188-b21b04ca17a6","dateTime":"2021-11-09T18:44:25.983Z","isRelevant":false},{"taskStarted":true,"userId":"792390ab-56ba-47a8-8c3c-1ea452762f1c","dateTime":"2021-11-11T01:37:57.338Z","isRelevant":false},{"internal_node_id":"0.0-0.0-1.0","rt":29010.5,"response":" ","trial_type":"html-keyboard-response","stimulus":"<h1>Instruction</h1> You are about to begin a new task. <br> You will be asked to type as many words starting with one particular letter as you can in one minute. <br> Proper nouns will not count towards your total (proper nouns identify a single entity and are usually capitalized&mdash;for example, London, Jupiter, Sarah, and Microsoft). <br> When you are ready, please press the space bar and we will show you the letter. <br> <em>Press the space bar to begin.</em> ","time_elapsed":29016,"trial_index":0,"userId":"792390ab-56ba-47a8-8c3c-1ea452762f1c","dateTime":"2021-11-11T01:38:26.352Z","isRelevant":false},{"internal_node_id":"0.0-0.0-2.0","response":"picture\npastor\nposture\npast\npin\nprom\npacer\npresident\npineapple\npride\npoison\nplayer\n","trial_type":"timed-writing","stimulus":"Starting now, type as many words starting with <strong>p</strong> as you can in one minute. <br> Please put a space or a line break between each word. ","letter":"p","time_elapsed":89031,"trial_index":1,"userId":"792390ab-56ba-47a8-8c3c-1ea452762f1c","dateTime":"2021-11-11T01:39:26.368Z","isRelevant":true},{"ua":"Mozilla/5.0 (Windows NT 10.0; Win64; x64) AppleWebKit/537.36 (KHTML, like Gecko) Chrome/95.0.4638.69 Safari/537.36 Edg/95.0.1020.44","userId":"792390ab-56ba-47a8-8c3c-1ea452762f1c","dateTime":"2021-11-11T01:39:26.376Z","isRelevant":false},{"taskStarted":true,"userId":"792390ab-56ba-47a8-8c3c-1ea452762f1c","dateTime":"2021-11-11T18:51:07.060Z","isRelevant":false},{"internal_node_id":"0.0-0.0-1.0","rt":21144.59999999404,"response":" ","trial_type":"html-keyboard-response","stimulus":"<h1>Instruction</h1> You are about to begin a new task. <br> You will be asked to type as many words starting with one particular letter as you can in one minute. <br> Proper nouns will not count towards your total (proper nouns identify a single entity and are usually capitalized&mdash;for example, London, Jupiter, Sarah, and Microsoft). <br> When you are ready, please press the space bar and we will show you the letter. <br> <em>Press the space bar to begin.</em> ","time_elapsed":21152,"trial_index":0,"userId":"792390ab-56ba-47a8-8c3c-1ea452762f1c","dateTime":"2021-11-11T18:51:28.210Z","isRelevant":false},{"internal_node_id":"0.0-0.0-2.0","response":"car\ncoronavirus\ncactus\ncarpool\ncinder\ncallous\ncarpenter\ncost\ncustomer\nculture\nconservator \nconnection\ncurrency","trial_type":"timed-writing","stimulus":"Starting now, type as many words starting with <strong>c</strong> as you can in one minute. <br> Please put a space or a line break between each word. ","letter":"c","time_elapsed":81164,"trial_index":1,"userId":"792390ab-56ba-47a8-8c3c-1ea452762f1c","dateTime":"2021-11-11T18:52:28.224Z","isRelevant":true},{"ua":"Mozilla/5.0 (Windows NT 10.0; Win64; x64) AppleWebKit/537.36 (KHTML, like Gecko) Chrome/95.0.4638.69 Safari/537.36 Edg/95.0.1020.44","userId":"792390ab-56ba-47a8-8c3c-1ea452762f1c","dateTime":"2021-11-11T18:52:28.232Z","isRelevant":false},{"taskStarted":true,"userId":"792390ab-56ba-47a8-8c3c-1ea452762f1c","dateTime":"2021-11-13T06:15:49.184Z","isRelevant":false},{"internal_node_id":"0.0-0.0-1.0","rt":11100.899999976158,"response":" ","trial_type":"html-keyboard-response","stimulus":"<h1>Instruction</h1> You are about to begin a new task. <br> You will be asked to type as many words starting with one particular letter as you can in one minute. <br> Proper nouns will not count towards your total (proper nouns identify a single entity and are usually capitalized&mdash;for example, London, Jupiter, Sarah, and Microsoft). <br> When you are ready, please press the space bar and we will show you the letter. <br> <em>Press the space bar to begin.</em> ","time_elapsed":11105,"trial_index":0,"userId":"792390ab-56ba-47a8-8c3c-1ea452762f1c","dateTime":"2021-11-13T06:16:00.290Z","isRelevant":false},{"internal_node_id":"0.0-0.0-2.0","response":"cat\ncostume\ncar\nconservatorship\ncost\ncaterer\ncarpenter\ncharacter\ncow","trial_type":"timed-writing","stimulus":"Starting now, type as many words starting with <strong>c</strong> as you can in one minute. <br> Please put a space or a line break between each word. ","letter":"c","time_elapsed":71142,"trial_index":1,"userId":"792390ab-56ba-47a8-8c3c-1ea452762f1c","dateTime":"2021-11-13T06:17:00.327Z","isRelevant":true},{"ua":"Mozilla/5.0 (Windows NT 10.0; Win64; x64) AppleWebKit/537.36 (KHTML, like Gecko) Chrome/95.0.4638.69 Safari/537.36","userId":"792390ab-56ba-47a8-8c3c-1ea452762f1c","dateTime":"2021-11-13T06:17:00.338Z","isRelevant":false},{"taskStarted":true,"userId":"792390ab-56ba-47a8-8c3c-1ea452762f1c","dateTime":"2021-11-13T17:20:21.299Z","isRelevant":false},{"internal_node_id":"0.0-0.0-1.0","rt":11496.599999964237,"response":" ","trial_type":"html-keyboard-response","stimulus":"<h1>Instruction</h1> You are about to begin a new task. <br> You will be asked to type as many words starting with one particular letter as you can in one minute. <br> Proper nouns will not count towards your total (proper nouns identify a single entity and are usually capitalized&mdash;for example, London, Jupiter, Sarah, and Microsoft). <br> When you are ready, please press the space bar and we will show you the letter. <br> <em>Press the space bar to begin.</em> ","time_elapsed":11505,"trial_index":0,"userId":"792390ab-56ba-47a8-8c3c-1ea452762f1c","dateTime":"2021-11-13T17:20:32.802Z","isRelevant":false},{"internal_node_id":"0.0-0.0-2.0","response":"shared\nstream\nsurprise\nsystem\nsupport \nswitch\nstraw\nsymptom \nsympathetic\nstuff","trial_type":"timed-writing","stimulus":"Starting now, type as many words starting with <strong>s</strong> as you can in one minute. <br> Please put a space or a line break between each word. ","letter":"s","time_elapsed":71537,"trial_index":1,"userId":"792390ab-56ba-47a8-8c3c-1ea452762f1c","dateTime":"2021-11-13T17:21:32.833Z","isRelevant":true},{"ua":"Mozilla/5.0 (Windows NT 10.0; Win64; x64) AppleWebKit/537.36 (KHTML, like Gecko) Chrome/95.0.4638.69 Safari/537.36 Edg/95.0.1020.44","userId":"792390ab-56ba-47a8-8c3c-1ea452762f1c","dateTime":"2021-11-13T17:21:32.842Z","isRelevant":false},{"taskStarted":true,"userId":"792390ab-56ba-47a8-8c3c-1ea452762f1c","dateTime":"2021-11-15T17:53:28.761Z","isRelevant":false},{"internal_node_id":"0.0-0.0-1.0","rt":1936.5,"response":" ","trial_type":"html-keyboard-response","stimulus":"<h1>Instruction</h1> You are about to begin a new task. <br> You will be asked to type as many words starting with one particular letter as you can in one minute. <br> Proper nouns will not count towards your total (proper nouns identify a single entity and are usually capitalized&mdash;for example, London, Jupiter, Sarah, and Microsoft). <br> When you are ready, please press the space bar and we will show you the letter. <br> <em>Press the space bar to begin.</em> ","time_elapsed":1943,"trial_index":0,"userId":"792390ab-56ba-47a8-8c3c-1ea452762f1c","dateTime":"2021-11-15T17:53:30.705Z","isRelevant":false},{"internal_node_id":"0.0-0.0-2.0","response":"donor \ndonation\ndeity\ndivine\ndoctor\ndistrust\ndoctrine\ndust\nduty\ndogma\ndogmatic\ndaily\ndairy\ndefinition\n","trial_type":"timed-writing","stimulus":"Starting now, type as many words starting with <strong>d</strong> as you can in one minute. <br> Please put a space or a line break between each word. ","letter":"d","time_elapsed":61962,"trial_index":1,"userId":"792390ab-56ba-47a8-8c3c-1ea452762f1c","dateTime":"2021-11-15T17:54:30.724Z","isRelevant":true},{"ua":"Mozilla/5.0 (Windows NT 10.0; Win64; x64) AppleWebKit/537.36 (KHTML, like Gecko) Chrome/95.0.4638.69 Safari/537.36 Edg/95.0.1020.53","userId":"792390ab-56ba-47a8-8c3c-1ea452762f1c","dateTime":"2021-11-15T17:54:30.728Z","isRelevant":false},{"taskStarted":true,"userId":"ed732f11-6a56-4990-9a8d-9465c81770fb","dateTime":"2021-11-20T03:16:53.245Z","isRelevant":false},{"trial_index":0,"internal_node_id":"0.0-0.0-0.0-0.0","success":true,"trial_type":"fullscreen","time_elapsed":5086,"userId":"ed732f11-6a56-4990-9a8d-9465c81770fb","dateTime":"2021-11-20T03:16:58.332Z","isRelevant":false},{"internal_node_id":"0.0-0.0-1.0","rt":2528,"response":" ","trial_type":"html-keyboard-response","stimulus":"<h1>Instruction</h1>\nYou are about to begin a new task. <br>\nYou will be asked to type as many words starting with one particular letter as you can in one\nminute. <br>\nProper nouns will not count towards your total (proper nouns identify a single entity and\nare usually capitalized&mdash;for example, London, Jupiter, Sarah, and Microsoft). <br>\nWhen you are ready, please press the space bar and we will show you the letter. <br>\n<em>Press the space bar to begin.</em>\n","time_elapsed":7622,"trial_index":1,"userId":"ed732f11-6a56-4990-9a8d-9465c81770fb","dateTime":"2021-11-20T03:17:00.867Z","isRelevant":false},{"internal_node_id":"0.0-0.0-2.0","response":"dowop dowoo dowel done dagger danger dangerous did don't do does diddly dip dipper dippy dinner dine diner dines dentition dentist dental dents dent deny","trial_type":"timed-writing","stimulus":"Starting now, type as many words starting with <span id=\"verbal-fluency-letter\">d</span> as you can in one minute. <br>\nPlease put a space or a line break between each word.\n","letter":"d","time_elapsed":67649,"trial_index":2,"userId":"ed732f11-6a56-4990-9a8d-9465c81770fb","dateTime":"2021-11-20T03:18:00.894Z","isRelevant":true},{"ua":"Mozilla/5.0 (Macintosh; Intel Mac OS X 10.13; rv:94.0) Gecko/20100101 Firefox/94.0","userId":"ed732f11-6a56-4990-9a8d-9465c81770fb","dateTime":"2021-11-20T03:18:00.909Z","isRelevant":false},{"taskStarted":true,"userId":"ed732f11-6a56-4990-9a8d-9465c81770fb","dateTime":"2021-11-20T03:18:07.099Z","isRelevant":false},{"taskStarted":true,"userId":"ed732f11-6a56-4990-9a8d-9465c81770fb","dateTime":"2021-11-20T03:19:13.874Z","isRelevant":false},{"taskStarted":true,"userId":"ed732f11-6a56-4990-9a8d-9465c81770fb","dateTime":"2021-11-20T03:19:31.549Z","isRelevant":false},{"taskStarted":true,"userId":"ed732f11-6a56-4990-9a8d-9465c81770fb","dateTime":"2021-11-20T03:22:07.466Z","isRelevant":false},{"taskStarted":true,"userId":"ed732f11-6a56-4990-9a8d-9465c81770fb","dateTime":"2021-11-20T03:23:20.928Z","isRelevant":false},{"taskStarted":true,"userId":"ed732f11-6a56-4990-9a8d-9465c81770fb","dateTime":"2021-11-20T03:24:10.373Z","isRelevant":false},{"taskStarted":true,"userId":"ed732f11-6a56-4990-9a8d-9465c81770fb","dateTime":"2021-11-20T03:26:31.080Z","isRelevant":false},{"taskStarted":true,"userId":"ed732f11-6a56-4990-9a8d-9465c81770fb","dateTime":"2021-11-20T03:27:16.746Z","isRelevant":false},{"taskStarted":true,"userId":"ed732f11-6a56-4990-9a8d-9465c81770fb","dateTime":"2021-11-20T03:27:25.394Z","isRelevant":false},{"trial_index":0,"internal_node_id":"0.0-0.0-0.0-0.0","success":true,"trial_type":"fullscreen","time_elapsed":7388,"userId":"ed732f11-6a56-4990-9a8d-9465c81770fb","dateTime":"2021-11-20T03:27:32.783Z","isRelevant":false},{"internal_node_id":"0.0-0.0-1.0","rt":2140,"response":" ","trial_type":"html-keyboard-response","stimulus":"<h1>Instruction</h1>\nYou are about to begin a new task. <br>\nYou will be asked to type as many words starting with one particular letter as you can in one\nminute. <br>\nProper nouns will not count towards your total (proper nouns identify a single entity and\nare usually capitalized&mdash;for example, London, Jupiter, Sarah, and Microsoft). <br>\nWhen you are ready, please press the space bar and we will show you the letter. <br>\n<em>Press the space bar to begin.</em>\n","time_elapsed":9546,"trial_index":1,"userId":"ed732f11-6a56-4990-9a8d-9465c81770fb","dateTime":"2021-11-20T03:27:34.940Z","isRelevant":false},{"internal_node_id":"0.0-0.0-2.0","response":"sam sammy sandwich sandy sand sank sink sinks sinkhole sin sinner sins sinners sinful sap sappy saps stun stunning stunned stiff stiffy stigma stigmata ","trial_type":"timed-writing","stimulus":"Starting now, type as many words starting with <span id=\"verbal-fluency-letter\">s</span> as you can in one minute. <br>\nPlease put a space or a line break between each word.\n","letter":"s","time_elapsed":69566,"trial_index":2,"userId":"ed732f11-6a56-4990-9a8d-9465c81770fb","dateTime":"2021-11-20T03:28:34.960Z","isRelevant":true},{"ua":"Mozilla/5.0 (Macintosh; Intel Mac OS X 10.13; rv:94.0) Gecko/20100101 Firefox/94.0","userId":"ed732f11-6a56-4990-9a8d-9465c81770fb","dateTime":"2021-11-20T03:28:34.970Z","isRelevant":false},{"taskStarted":true,"userId":"ed732f11-6a56-4990-9a8d-9465c81770fb","dateTime":"2021-11-20T03:28:44.060Z","isRelevant":false},{"taskStarted":true,"userId":"ed732f11-6a56-4990-9a8d-9465c81770fb","dateTime":"2021-11-20T03:29:07.292Z","isRelevant":false},{"taskStarted":true,"userId":"ed732f11-6a56-4990-9a8d-9465c81770fb","dateTime":"2021-11-20T03:29:10.611Z","isRelevant":false},{"taskStarted":true,"userId":"ed732f11-6a56-4990-9a8d-9465c81770fb","dateTime":"2021-11-20T03:29:18.521Z","isRelevant":false},{"taskStarted":true,"userId":"ed732f11-6a56-4990-9a8d-9465c81770fb","dateTime":"2021-11-20T03:29:33.089Z","isRelevant":false},{"taskStarted":true,"userId":"ed732f11-6a56-4990-9a8d-9465c81770fb","dateTime":"2021-11-20T03:33:11.233Z","isRelevant":false},{"taskStarted":true,"userId":"ed732f11-6a56-4990-9a8d-9465c81770fb","dateTime":"2021-11-20T03:34:30.528Z","isRelevant":false},{"taskStarted":true,"userId":"ed732f11-6a56-4990-9a8d-9465c81770fb","dateTime":"2021-11-20T03:34:57.334Z","isRelevant":false},{"taskStarted":true,"userId":"6079389f-5d71-4087-9a91-f7e150dec265","dateTime":"2021-11-09T20:17:48.174Z","isRelevant":false},{"internal_node_id":"0.0-0.0-1.0","rt":25175.700000047684,"response":" ","trial_type":"html-keyboard-response","stimulus":"<h1>Instruction</h1> You are about to begin a new task. <br> You will be asked to type as many words starting with one particular letter as you can in one minute. <br> Proper nouns will not count towards your total (proper nouns identify a single entity and are usually capitalized&mdash;for example, London, Jupiter, Sarah, and Microsoft). <br> When you are ready, please press the space bar and we will show you the letter. <br> <em>Press the space bar to begin.</em> ","time_elapsed":25181,"trial_index":0,"userId":"6079389f-5d71-4087-9a91-f7e150dec265","dateTime":"2021-11-09T20:18:13.353Z","isRelevant":false},{"internal_node_id":"0.0-0.0-2.0","response":"door, dumb, doorstep, dry, drum, dreadful, disk, dash, dine, dope, dot, dull, dean, dime, dim, ","trial_type":"timed-writing","stimulus":"Starting now, type as many words starting with <strong>d</strong> as you can in one minute. <br> Please put a space or a line break between each word. ","letter":"d","time_elapsed":85191,"trial_index":1,"userId":"6079389f-5d71-4087-9a91-f7e150dec265","dateTime":"2021-11-09T20:19:13.363Z","isRelevant":true},{"ua":"Mozilla/5.0 (Windows NT 10.0; Win64; x64) AppleWebKit/537.36 (KHTML, like Gecko) Chrome/95.0.4638.69 Safari/537.36","userId":"6079389f-5d71-4087-9a91-f7e150dec265","dateTime":"2021-11-09T20:19:13.365Z","isRelevant":false},{"taskStarted":true,"userId":"6079389f-5d71-4087-9a91-f7e150dec265","dateTime":"2021-11-10T20:52:25.317Z","isRelevant":false},{"internal_node_id":"0.0-0.0-1.0","rt":11951.89999999851,"response":" ","trial_type":"html-keyboard-response","stimulus":"<h1>Instruction</h1> You are about to begin a new task. <br> You will be asked to type as many words starting with one particular letter as you can in one minute. <br> Proper nouns will not count towards your total (proper nouns identify a single entity and are usually capitalized&mdash;for example, London, Jupiter, Sarah, and Microsoft). <br> When you are ready, please press the space bar and we will show you the letter. <br> <em>Press the space bar to begin.</em> ","time_elapsed":11958,"trial_index":0,"userId":"6079389f-5d71-4087-9a91-f7e150dec265","dateTime":"2021-11-10T20:52:37.275Z","isRelevant":false},{"internal_node_id":"0.0-0.0-2.0","response":"fool, foolish, false, falsely, fame, famous, food, famine. feminine, feminist, fail, failing, foot, feet, fable, fabulous, friend, friendly, fame","trial_type":"timed-writing","stimulus":"Starting now, type as many words starting with <strong>f</strong> as you can in one minute. <br> Please put a space or a line break between each word. ","letter":"f","time_elapsed":71968,"trial_index":1,"userId":"6079389f-5d71-4087-9a91-f7e150dec265","dateTime":"2021-11-10T20:53:37.284Z","isRelevant":true},{"ua":"Mozilla/5.0 (Windows NT 10.0; Win64; x64) AppleWebKit/537.36 (KHTML, like Gecko) Chrome/95.0.4638.69 Safari/537.36","userId":"6079389f-5d71-4087-9a91-f7e150dec265","dateTime":"2021-11-10T20:53:37.286Z","isRelevant":false},{"taskStarted":true,"userId":"6079389f-5d71-4087-9a91-f7e150dec265","dateTime":"2021-11-12T07:07:35.424Z","isRelevant":false},{"internal_node_id":"0.0-0.0-1.0","rt":13970.299999982119,"response":" ","trial_type":"html-keyboard-response","stimulus":"<h1>Instruction</h1> You are about to begin a new task. <br> You will be asked to type as many words starting with one particular letter as you can in one minute. <br> Proper nouns will not count towards your total (proper nouns identify a single entity and are usually capitalized&mdash;for example, London, Jupiter, Sarah, and Microsoft). <br> When you are ready, please press the space bar and we will show you the letter. <br> <em>Press the space bar to begin.</em> ","time_elapsed":13977,"trial_index":0,"userId":"6079389f-5d71-4087-9a91-f7e150dec265","dateTime":"2021-11-12T07:07:49.400Z","isRelevant":false},{"internal_node_id":"0.0-0.0-2.0","response":"cool, cumin, cup, cot, coat, car, carrier, cat, choke, chalk, comb, come, corn, cone, cold, cope, cooperate, corroborate , collide ","trial_type":"timed-writing","stimulus":"Starting now, type as many words starting with <strong>c</strong> as you can in one minute. <br> Please put a space or a line break between each word. ","letter":"c","time_elapsed":73998,"trial_index":1,"userId":"6079389f-5d71-4087-9a91-f7e150dec265","dateTime":"2021-11-12T07:08:49.421Z","isRelevant":true},{"ua":"Mozilla/5.0 (Windows NT 10.0; Win64; x64) AppleWebKit/537.36 (KHTML, like Gecko) Chrome/95.0.4638.69 Safari/537.36","userId":"6079389f-5d71-4087-9a91-f7e150dec265","dateTime":"2021-11-12T07:08:49.424Z","isRelevant":false},{"taskStarted":true,"userId":"6079389f-5d71-4087-9a91-f7e150dec265","dateTime":"2021-11-15T05:17:11.388Z","isRelevant":false},{"internal_node_id":"0.0-0.0-1.0","rt":13879,"response":" ","trial_type":"html-keyboard-response","stimulus":"<h1>Instruction</h1> You are about to begin a new task. <br> You will be asked to type as many words starting with one particular letter as you can in one minute. <br> Proper nouns will not count towards your total (proper nouns identify a single entity and are usually capitalized&mdash;for example, London, Jupiter, Sarah, and Microsoft). <br> When you are ready, please press the space bar and we will show you the letter. <br> <em>Press the space bar to begin.</em> ","time_elapsed":13882,"trial_index":0,"userId":"6079389f-5d71-4087-9a91-f7e150dec265","dateTime":"2021-11-15T05:17:25.270Z","isRelevant":false},{"internal_node_id":"0.0-0.0-2.0","response":"apple, ask, airplane, aerospace, affect, affected, atom, anime, ankle, ape, abort, avenue, alas, anhedonia, ajar, ","trial_type":"timed-writing","stimulus":"Starting now, type as many words starting with <strong>a</strong> as you can in one minute. <br> Please put a space or a line break between each word. ","letter":"a","time_elapsed":73891,"trial_index":1,"userId":"6079389f-5d71-4087-9a91-f7e150dec265","dateTime":"2021-11-15T05:18:25.278Z","isRelevant":true},{"ua":"Mozilla/5.0 (Windows NT 10.0; Win64; x64) AppleWebKit/537.36 (KHTML, like Gecko) Chrome/95.0.4638.69 Safari/537.36","userId":"6079389f-5d71-4087-9a91-f7e150dec265","dateTime":"2021-11-15T05:18:25.280Z","isRelevant":false},{"taskStarted":true,"userId":"6079389f-5d71-4087-9a91-f7e150dec265","dateTime":"2021-11-17T19:47:07.373Z","isRelevant":false},{"internal_node_id":"0.0-0.0-1.0","rt":19662,"response":" ","trial_type":"html-keyboard-response","stimulus":"<h1>Instruction</h1> You are about to begin a new task. <br> You will be asked to type as many words starting with one particular letter as you can in one minute. <br> Proper nouns will not count towards your total (proper nouns identify a single entity and are usually capitalized&mdash;for example, London, Jupiter, Sarah, and Microsoft). <br> When you are ready, please press the space bar and we will show you the letter. <br> <em>Press the space bar to begin.</em> ","time_elapsed":19664,"trial_index":0,"userId":"6079389f-5d71-4087-9a91-f7e150dec265","dateTime":"2021-11-17T19:47:27.037Z","isRelevant":false},{"internal_node_id":"0.0-0.0-2.0","response":"same, seem, some, soul, soap, soil, spot, stick, sticker, stain, shame, shake, shock, small, smell, skip, star, stare, ","trial_type":"timed-writing","stimulus":"Starting now, type as many words starting with <span id=\"verbal-fluency-letter\">s</span> as you can in one minute. <br> Please put a space or a line break between each word. ","letter":"s","time_elapsed":79671,"trial_index":1,"userId":"6079389f-5d71-4087-9a91-f7e150dec265","dateTime":"2021-11-17T19:48:27.044Z","isRelevant":true},{"ua":"Mozilla/5.0 (Windows NT 10.0; Win64; x64) AppleWebKit/537.36 (KHTML, like Gecko) Chrome/95.0.4638.69 Safari/537.36","userId":"6079389f-5d71-4087-9a91-f7e150dec265","dateTime":"2021-11-17T19:48:27.045Z","isRelevant":false},{"taskStarted":true,"userId":"c49c7b09-58b5-4132-92af-dd42272e1a49","dateTime":"2021-11-23T20:32:48.692Z","isRelevant":false},{"trial_index":0,"internal_node_id":"0.0-0.0-0.0-0.0","success":true,"trial_type":"fullscreen","time_elapsed":1488,"userId":"c49c7b09-58b5-4132-92af-dd42272e1a49","dateTime":"2021-11-23T20:32:50.180Z","isRelevant":false},{"internal_node_id":"0.0-0.0-1.0","rt":5707.899999976158,"response":" ","trial_type":"html-keyboard-response","stimulus":"<h1>Instruction</h1> You are about to begin a new task. <br> You will be asked to type as many words starting with one particular letter as you can in one minute. <br> Proper nouns will not count towards your total (proper nouns identify a single entity and are usually capitalized&mdash;for example, London, Jupiter, Sarah, and Microsoft). <br> When you are ready, please press the space bar and we will show you the letter. <br> <em>Press the space bar to begin.</em> ","time_elapsed":7198,"trial_index":1,"userId":"c49c7b09-58b5-4132-92af-dd42272e1a49","dateTime":"2021-11-23T20:32:55.890Z","isRelevant":false},{"internal_node_id":"0.0-0.0-2.0","response":"p the first day","trial_type":"timed-writing","stimulus":"Starting now, type as many words starting with <span id=\"verbal-fluency-letter\">p</span> as you can in one minute. <br> Please put a space or a line break between each word. ","letter":"p","time_elapsed":67205,"trial_index":2,"userId":"c49c7b09-58b5-4132-92af-dd42272e1a49","dateTime":"2021-11-23T20:33:55.897Z","isRelevant":true},{"ua":"Mozilla/5.0 (Macintosh; Intel Mac OS X 10_15_7) AppleWebKit/537.36 (KHTML, like Gecko) Chrome/95.0.4638.54 Safari/537.36","userId":"c49c7b09-58b5-4132-92af-dd42272e1a49","dateTime":"2021-11-23T20:33:55.898Z","isRelevant":false},{"taskStarted":true,"userId":"c49c7b09-58b5-4132-92af-dd42272e1a49","dateTime":"2021-11-23T20:34:04.524Z","isRelevant":false},{"trial_index":0,"internal_node_id":"0.0-0.0-0.0-0.0","success":true,"trial_type":"fullscreen","time_elapsed":1400,"userId":"c49c7b09-58b5-4132-92af-dd42272e1a49","dateTime":"2021-11-23T20:34:05.924Z","isRelevant":false},{"internal_node_id":"0.0-0.0-1.0","rt":1672.6000000238419,"response":" ","trial_type":"html-keyboard-response","stimulus":"<h1>Instruction</h1> You are about to begin a new task. <br> You will be asked to type as many words starting with one particular letter as you can in one minute. <br> Proper nouns will not count towards your total (proper nouns identify a single entity and are usually capitalized&mdash;for example, London, Jupiter, Sarah, and Microsoft). <br> When you are ready, please press the space bar and we will show you the letter. <br> <em>Press the space bar to begin.</em> ","time_elapsed":3075,"trial_index":1,"userId":"c49c7b09-58b5-4132-92af-dd42272e1a49","dateTime":"2021-11-23T20:34:07.599Z","isRelevant":false},{"internal_node_id":"0.0-0.0-2.0","response":"d the 2nd day","trial_type":"timed-writing","stimulus":"Starting now, type as many words starting with <span id=\"verbal-fluency-letter\">d</span> as you can in one minute. <br> Please put a space or a line break between each word. ","letter":"d","time_elapsed":63081,"trial_index":2,"userId":"c49c7b09-58b5-4132-92af-dd42272e1a49","dateTime":"2021-11-23T20:35:07.605Z","isRelevant":true},{"ua":"Mozilla/5.0 (Macintosh; Intel Mac OS X 10_15_7) AppleWebKit/537.36 (KHTML, like Gecko) Chrome/95.0.4638.54 Safari/537.36","userId":"c49c7b09-58b5-4132-92af-dd42272e1a49","dateTime":"2021-11-23T20:35:07.609Z","isRelevant":false},{"taskStarted":true,"userId":"c49c7b09-58b5-4132-92af-dd42272e1a49","dateTime":"2021-11-23T20:35:19.921Z","isRelevant":false},{"trial_index":0,"internal_node_id":"0.0-0.0-0.0-0.0","success":true,"trial_type":"fullscreen","time_elapsed":2548,"userId":"c49c7b09-58b5-4132-92af-dd42272e1a49","dateTime":"2021-11-23T20:35:22.470Z","isRelevant":false},{"internal_node_id":"0.0-0.0-1.0","rt":3122.899999976158,"response":" ","trial_type":"html-keyboard-response","stimulus":"<h1>Instruction</h1> You are about to begin a new task. <br> You will be asked to type as many words starting with one particular letter as you can in one minute. <br> Proper nouns will not count towards your total (proper nouns identify a single entity and are usually capitalized&mdash;for example, London, Jupiter, Sarah, and Microsoft). <br> When you are ready, please press the space bar and we will show you the letter. <br> <em>Press the space bar to begin.</em> ","time_elapsed":5673,"trial_index":1,"userId":"c49c7b09-58b5-4132-92af-dd42272e1a49","dateTime":"2021-11-23T20:35:25.594Z","isRelevant":false},{"internal_node_id":"0.0-0.0-2.0","response":"f the 3rd day","trial_type":"timed-writing","stimulus":"Starting now, type as many words starting with <span id=\"verbal-fluency-letter\">f</span> as you can in one minute. <br> Please put a space or a line break between each word. ","letter":"f","time_elapsed":65679,"trial_index":2,"userId":"c49c7b09-58b5-4132-92af-dd42272e1a49","dateTime":"2021-11-23T20:36:25.600Z","isRelevant":true},{"ua":"Mozilla/5.0 (Macintosh; Intel Mac OS X 10_15_7) AppleWebKit/537.36 (KHTML, like Gecko) Chrome/95.0.4638.54 Safari/537.36","userId":"c49c7b09-58b5-4132-92af-dd42272e1a49","dateTime":"2021-11-23T20:36:25.605Z","isRelevant":false},{"taskStarted":true,"userId":"c49c7b09-58b5-4132-92af-dd42272e1a49","dateTime":"2021-11-23T20:36:33.932Z","isRelevant":false},{"trial_index":0,"internal_node_id":"0.0-0.0-0.0-0.0","success":true,"trial_type":"fullscreen","time_elapsed":1459,"userId":"c49c7b09-58b5-4132-92af-dd42272e1a49","dateTime":"2021-11-23T20:36:35.391Z","isRelevant":false},{"internal_node_id":"0.0-0.0-1.0","rt":2196.899999976158,"response":" ","trial_type":"html-keyboard-response","stimulus":"<h1>Instruction</h1> You are about to begin a new task. <br> You will be asked to type as many words starting with one particular letter as you can in one minute. <br> Proper nouns will not count towards your total (proper nouns identify a single entity and are usually capitalized&mdash;for example, London, Jupiter, Sarah, and Microsoft). <br> When you are ready, please press the space bar and we will show you the letter. <br> <em>Press the space bar to begin.</em> ","time_elapsed":3658,"trial_index":1,"userId":"c49c7b09-58b5-4132-92af-dd42272e1a49","dateTime":"2021-11-23T20:36:37.590Z","isRelevant":false},{"internal_node_id":"0.0-0.0-2.0","response":"s the 4th day","trial_type":"timed-writing","stimulus":"Starting now, type as many words starting with <span id=\"verbal-fluency-letter\">s</span> as you can in one minute. <br> Please put a space or a line break between each word. ","letter":"s","time_elapsed":63660,"trial_index":2,"userId":"c49c7b09-58b5-4132-92af-dd42272e1a49","dateTime":"2021-11-23T20:37:37.592Z","isRelevant":true},{"ua":"Mozilla/5.0 (Macintosh; Intel Mac OS X 10_15_7) AppleWebKit/537.36 (KHTML, like Gecko) Chrome/95.0.4638.54 Safari/537.36","userId":"c49c7b09-58b5-4132-92af-dd42272e1a49","dateTime":"2021-11-23T20:37:37.597Z","isRelevant":false},{"taskStarted":true,"userId":"c49c7b09-58b5-4132-92af-dd42272e1a49","dateTime":"2021-11-23T20:37:51.164Z","isRelevant":false},{"trial_index":0,"internal_node_id":"0.0-0.0-0.0-0.0","success":true,"trial_type":"fullscreen","time_elapsed":4116,"userId":"c49c7b09-58b5-4132-92af-dd42272e1a49","dateTime":"2021-11-23T20:37:55.281Z","isRelevant":false},{"internal_node_id":"0.0-0.0-1.0","rt":1320.5999999046326,"response":" ","trial_type":"html-keyboard-response","stimulus":"<h1>Instruction</h1> You are about to begin a new task. <br> You will be asked to type as many words starting with one particular letter as you can in one minute. <br> Proper nouns will not count towards your total (proper nouns identify a single entity and are usually capitalized&mdash;for example, London, Jupiter, Sarah, and Microsoft). <br> When you are ready, please press the space bar and we will show you the letter. <br> <em>Press the space bar to begin.</em> ","time_elapsed":5439,"trial_index":1,"userId":"c49c7b09-58b5-4132-92af-dd42272e1a49","dateTime":"2021-11-23T20:37:56.603Z","isRelevant":false},{"internal_node_id":"0.0-0.0-2.0","response":"c the 5th day","trial_type":"timed-writing","stimulus":"Starting now, type as many words starting with <span id=\"verbal-fluency-letter\">c</span> as you can in one minute. <br> Please put a space or a line break between each word. ","letter":"c","time_elapsed":65442,"trial_index":2,"userId":"c49c7b09-58b5-4132-92af-dd42272e1a49","dateTime":"2021-11-23T20:38:56.606Z","isRelevant":true},{"ua":"Mozilla/5.0 (Macintosh; Intel Mac OS X 10_15_7) AppleWebKit/537.36 (KHTML, like Gecko) Chrome/95.0.4638.54 Safari/537.36","userId":"c49c7b09-58b5-4132-92af-dd42272e1a49","dateTime":"2021-11-23T20:38:56.611Z","isRelevant":false},{"taskStarted":true,"userId":"c49c7b09-58b5-4132-92af-dd42272e1a49","dateTime":"2021-11-23T20:39:11.096Z","isRelevant":false},{"trial_index":0,"internal_node_id":"0.0-0.0-0.0-0.0","success":true,"trial_type":"fullscreen","time_elapsed":1461,"userId":"c49c7b09-58b5-4132-92af-dd42272e1a49","dateTime":"2021-11-23T20:39:12.557Z","isRelevant":false},{"internal_node_id":"0.0-0.0-1.0","rt":1394.5,"response":" ","trial_type":"html-keyboard-response","stimulus":"<h1>Instruction</h1> You are about to begin a new task. <br> You will be asked to type as many words starting with one particular letter as you can in one minute. <br> Proper nouns will not count towards your total (proper nouns identify a single entity and are usually capitalized&mdash;for example, London, Jupiter, Sarah, and Microsoft). <br> When you are ready, please press the space bar and we will show you the letter. <br> <em>Press the space bar to begin.</em> ","time_elapsed":2858,"trial_index":1,"userId":"c49c7b09-58b5-4132-92af-dd42272e1a49","dateTime":"2021-11-23T20:39:13.954Z","isRelevant":false},{"internal_node_id":"0.0-0.0-2.0","response":"a the 6th day","trial_type":"timed-writing","stimulus":"Starting now, type as many words starting with <span id=\"verbal-fluency-letter\">a</span> as you can in one minute. <br> Please put a space or a line break between each word. ","letter":"a","time_elapsed":62862,"trial_index":2,"userId":"c49c7b09-58b5-4132-92af-dd42272e1a49","dateTime":"2021-11-23T20:40:13.959Z","isRelevant":true},{"ua":"Mozilla/5.0 (Macintosh; Intel Mac OS X 10_15_7) AppleWebKit/537.36 (KHTML, like Gecko) Chrome/95.0.4638.54 Safari/537.36","userId":"c49c7b09-58b5-4132-92af-dd42272e1a49","dateTime":"2021-11-23T20:40:13.960Z","isRelevant":false},{"taskStarted":true,"userId":"8bd2c88d-a06a-48d4-8311-0ed11e6b11d6","dateTime":"2021-11-16T00:15:14.128Z","isRelevant":false},{"internal_node_id":"0.0-0.0-1.0","rt":64200.199999809265,"response":" ","trial_type":"html-keyboard-response","stimulus":"<h1>Instruction</h1> You are about to begin a new task. <br> You will be asked to type as many words starting with one particular letter as you can in one minute. <br> Proper nouns will not count towards your total (proper nouns identify a single entity and are usually capitalized&mdash;for example, London, Jupiter, Sarah, and Microsoft). <br> When you are ready, please press the space bar and we will show you the letter. <br> <em>Press the space bar to begin.</em> ","time_elapsed":64210,"trial_index":0,"userId":"8bd2c88d-a06a-48d4-8311-0ed11e6b11d6","dateTime":"2021-11-16T00:16:18.337Z","isRelevant":false},{"internal_node_id":"0.0-0.0-2.0","response":"cinnamon, computer, corn, cornbread, cocoa, coffee, caffeine, cosign, collaborate, cooperate, ","trial_type":"timed-writing","stimulus":"Starting now, type as many words starting with <strong>c</strong> as you can in one minute. <br> Please put a space or a line break between each word. ","letter":"c","time_elapsed":124256,"trial_index":1,"userId":"8bd2c88d-a06a-48d4-8311-0ed11e6b11d6","dateTime":"2021-11-16T00:17:18.383Z","isRelevant":true},{"ua":"Mozilla/5.0 (Macintosh; Intel Mac OS X 10_13_6) AppleWebKit/537.36 (KHTML, like Gecko) Chrome/96.0.4664.45 Safari/537.36","userId":"8bd2c88d-a06a-48d4-8311-0ed11e6b11d6","dateTime":"2021-11-16T00:17:18.386Z","isRelevant":false},{"taskStarted":true,"userId":"0d940b94-1baf-43bf-a981-857ddf728e29","dateTime":"2021-11-09T17:44:26.822Z","isRelevant":false},{"internal_node_id":"0.0-0.0-1.0","rt":30686,"response":" ","trial_type":"html-keyboard-response","stimulus":"<h1>Instruction</h1> You are about to begin a new task. <br> You will be asked to type as many words starting with one particular letter as you can in one minute. <br> Proper nouns will not count towards your total (proper nouns identify a single entity and are usually capitalized&mdash;for example, London, Jupiter, Sarah, and Microsoft). <br> When you are ready, please press the space bar and we will show you the letter. <br> <em>Press the space bar to begin.</em> ","time_elapsed":30687,"trial_index":0,"userId":"0d940b94-1baf-43bf-a981-857ddf728e29","dateTime":"2021-11-09T17:44:57.511Z","isRelevant":false},{"internal_node_id":"0.0-0.0-2.0","response":"cat\ncatastrophe\ncircuit\ncircle\ncircled\ncircling\ncripple\ncrippling\ncrib\ncorn\ncornbread\ncanned\ncan\ncannot\ncamp\ncamping\ncamped\ncampbed\ncramp\ncramping\ncramped\ncrook\ncrooked\n","trial_type":"timed-writing","stimulus":"Starting now, type as many words starting with <strong>c</strong> as you can in one minute. <br> Please put a space or a line break between each word. ","letter":"c","time_elapsed":90766,"trial_index":1,"userId":"0d940b94-1baf-43bf-a981-857ddf728e29","dateTime":"2021-11-09T17:45:57.590Z","isRelevant":true},{"ua":"Mozilla/5.0 (Macintosh; Intel Mac OS X 10.15; rv:94.0) Gecko/20100101 Firefox/94.0","userId":"0d940b94-1baf-43bf-a981-857ddf728e29","dateTime":"2021-11-09T17:45:57.602Z","isRelevant":false},{"taskStarted":true,"userId":"0d940b94-1baf-43bf-a981-857ddf728e29","dateTime":"2021-11-11T17:43:11.915Z","isRelevant":false},{"internal_node_id":"0.0-0.0-1.0","rt":6962,"response":" ","trial_type":"html-keyboard-response","stimulus":"<h1>Instruction</h1> You are about to begin a new task. <br> You will be asked to type as many words starting with one particular letter as you can in one minute. <br> Proper nouns will not count towards your total (proper nouns identify a single entity and are usually capitalized&mdash;for example, London, Jupiter, Sarah, and Microsoft). <br> When you are ready, please press the space bar and we will show you the letter. <br> <em>Press the space bar to begin.</em> ","time_elapsed":6966,"trial_index":0,"userId":"0d940b94-1baf-43bf-a981-857ddf728e29","dateTime":"2021-11-11T17:43:18.882Z","isRelevant":false},{"internal_node_id":"0.0-0.0-2.0","response":"dog \ndogeared\ndo\ndoes\ndoing\ndoom \ndoomsday\nday \ndaytime\ndead\ndeading\ndread\ndreading\ndreaded\ndreadlocks\ndoll\ndolled\ndool\ndoo\ndinner\ndin\ndune\ndune","trial_type":"timed-writing","stimulus":"Starting now, type as many words starting with <strong>d</strong> as you can in one minute. <br> Please put a space or a line break between each word. ","letter":"d","time_elapsed":66977,"trial_index":1,"userId":"0d940b94-1baf-43bf-a981-857ddf728e29","dateTime":"2021-11-11T17:44:18.893Z","isRelevant":true},{"ua":"Mozilla/5.0 (Macintosh; Intel Mac OS X 10.15; rv:94.0) Gecko/20100101 Firefox/94.0","userId":"0d940b94-1baf-43bf-a981-857ddf728e29","dateTime":"2021-11-11T17:44:18.898Z","isRelevant":false},{"taskStarted":true,"userId":"0d940b94-1baf-43bf-a981-857ddf728e29","dateTime":"2021-11-14T04:34:37.406Z","isRelevant":false},{"internal_node_id":"0.0-0.0-1.0","rt":4105,"response":" ","trial_type":"html-keyboard-response","stimulus":"<h1>Instruction</h1> You are about to begin a new task. <br> You will be asked to type as many words starting with one particular letter as you can in one minute. <br> Proper nouns will not count towards your total (proper nouns identify a single entity and are usually capitalized&mdash;for example, London, Jupiter, Sarah, and Microsoft). <br> When you are ready, please press the space bar and we will show you the letter. <br> <em>Press the space bar to begin.</em> ","time_elapsed":4108,"trial_index":0,"userId":"0d940b94-1baf-43bf-a981-857ddf728e29","dateTime":"2021-11-14T04:34:41.514Z","isRelevant":false},{"internal_node_id":"0.0-0.0-2.0","response":"apple\napples\napplication\napply\napplies\nad\nadd\nadded\naddition\nadditional\nat\nate\natom\natomize\natoms\napps\napp\nattention\nan\nanswer\nant\naunt\naunts\nants\nanthill\nante\nace\n","trial_type":"timed-writing","stimulus":"Starting now, type as many words starting with <strong>a</strong> as you can in one minute. <br> Please put a space or a line break between each word. ","letter":"a","time_elapsed":64119,"trial_index":1,"userId":"0d940b94-1baf-43bf-a981-857ddf728e29","dateTime":"2021-11-14T04:35:41.525Z","isRelevant":true},{"ua":"Mozilla/5.0 (Macintosh; Intel Mac OS X 10.15; rv:94.0) Gecko/20100101 Firefox/94.0","userId":"0d940b94-1baf-43bf-a981-857ddf728e29","dateTime":"2021-11-14T04:35:41.530Z","isRelevant":false},{"taskStarted":true,"userId":"0d940b94-1baf-43bf-a981-857ddf728e29","dateTime":"2021-11-14T15:18:20.397Z","isRelevant":false},{"internal_node_id":"0.0-0.0-1.0","rt":4147,"response":" ","trial_type":"html-keyboard-response","stimulus":"<h1>Instruction</h1> You are about to begin a new task. <br> You will be asked to type as many words starting with one particular letter as you can in one minute. <br> Proper nouns will not count towards your total (proper nouns identify a single entity and are usually capitalized&mdash;for example, London, Jupiter, Sarah, and Microsoft). <br> When you are ready, please press the space bar and we will show you the letter. <br> <em>Press the space bar to begin.</em> ","time_elapsed":4151,"trial_index":0,"userId":"0d940b94-1baf-43bf-a981-857ddf728e29","dateTime":"2021-11-14T15:18:24.548Z","isRelevant":false},{"internal_node_id":"0.0-0.0-2.0","response":"apple\napples\napp\nat\nate\nab\nabs\nabsolute\nable\nace\naced\naccelerate\naccelerated\nad\nads\nadvertise\nadvertising\nadd\nadded\naddition\nadditional\naffect\naffected\n","trial_type":"timed-writing","stimulus":"Starting now, type as many words starting with <strong>a</strong> as you can in one minute. <br> Please put a space or a line break between each word. ","letter":"a","time_elapsed":64162,"trial_index":1,"userId":"0d940b94-1baf-43bf-a981-857ddf728e29","dateTime":"2021-11-14T15:19:24.559Z","isRelevant":true},{"ua":"Mozilla/5.0 (Macintosh; Intel Mac OS X 10.15; rv:94.0) Gecko/20100101 Firefox/94.0","userId":"0d940b94-1baf-43b