[
	{
		"rt": 2166.899999976158,
		"stimulus": "Thank you for finishing that task. The next task will be Spatial Orientation.\r\n<br> <br>\r\nThis is a test of your ability to imagine different perspectives or orientations in space.\r\nIn this task, you will see a picture of a scene of objects with a statement below it, together with an \"input circle\".\r\nYou will be asked to imagine that you are standing at one object in the scene and facing another object.\r\nYour task is to draw a line showing the direction to a third object from this perspective.\r\nOn each trial, you will be asked to imagine standing at a different first object, facing a different second object, and then to draw a line to a different third object.\r\n<br> <br>\r\nYou respond by \"drawing\" a line on the arrow circle using the computer mouse.\r\nThe center of the input circle represents your imagined location (at the first object) and the vertical line represents your imagined perspective (facing the second object).\r\nYou need to draw the direction to a third object from this facing direction.\r\n<br> <br>\r\nLook at the sample trial below. In this example you are asked to imagine that you are standing at the <strong>bell</strong> facing the <strong>tree</strong>.\r\nYour task is to draw a line indicating the direction to the <strong>drum</strong>.\r\nIn the sample trial this line has been drawn for you.\r\nIn the test trials, your task is to draw this line on the arrow circle using the computer mouse.\r\nCan you see that if you were at the <strong>bell</strong> facing the <strong>tree</strong> the <strong>drum</strong> would be in the direction show by the dotted line?\r\n<br> <br>\r\nNow you will begin practicing on the computer.\r\n<br> <br>\r\n<em>Press the space bar to continue.</em>\r\n",
		"response": " ",
		"trial_type": "html-keyboard-response",
		"trial_index": 0,
		"time_elapsed": 2168,
		"internal_node_id": "0.0-0.0"
	},
	{
		"responseRadians": 0.992894389832651,
		"targetRadians": 0.9624657945830842,
		"rt": 3281.100000023842,
		"isRelevant": false,
		"trial_type": "spatial-orientation",
		"trial_index": 1,
		"time_elapsed": 6451,
		"internal_node_id": "0.0-1.0"
	},
	{
		"rt": 1336.9000000357628,
		"stimulus": "Now you will do three practice trials.\r\nWhen each trial appears, move the line and click to indicate your answer.\r\n<br>\r\nOnce you have entered your answer the correct answer will be shown in red.\r\n<br>\r\n<em>Press the space bar to begin the practice trials.</em>\r\n",
		"response": " ",
		"trial_type": "html-keyboard-response",
		"trial_index": 2,
		"time_elapsed": 7788,
		"internal_node_id": "0.0-2.0"
	},
	{
		"responseRadians": -0.830265990182204,
		"targetRadians": -1.0086842634230553,
		"rt": 7419.599999964237,
		"isRelevant": false,
		"trial_type": "spatial-orientation",
		"trial_index": 3,
		"time_elapsed": 16209,
		"internal_node_id": "0.0-3.0"
	},
	{
		"responseRadians": 1.011736181990868,
		"targetRadians": 0.5839296875504644,
		"rt": 6895.600000023842,
		"isRelevant": false,
		"trial_type": "spatial-orientation",
		"trial_index": 4,
		"time_elapsed": 24118,
		"internal_node_id": "0.0-4.0"
	},
	{
		"responseRadians": -0.8349443579885736,
		"targetRadians": -0.8795148654579059,
		"rt": 5233.299999952316,
		"isRelevant": false,
		"trial_type": "spatial-orientation",
		"trial_index": 5,
		"time_elapsed": 30353,
		"internal_node_id": "0.0-5.0"
	},
	{
		"rt": 715.6999999880791,
		"stimulus": "Now you will do the test.\r\nThere are 12 items on this test.\r\nYou will have 5 minutes to complete these items.\r\n<br>\r\nPlease try to response accurately, but do not spend too much time on any one item.\r\n<br>\r\n<em>Press the space bar to begin the test trials.</em>\r\n",
		"response": " ",
		"trial_type": "html-keyboard-response",
		"trial_index": 6,
		"time_elapsed": 31069,
		"internal_node_id": "0.0-6.0"
	},
	{
		"responseRadians": -0.7454194762741583,
		"targetRadians": -0.7171802924858609,
		"rt": 5513.5,
		"isRelevant": true,
		"trial_type": "spatial-orientation",
		"trial_index": 7,
		"time_elapsed": 37584,
		"internal_node_id": "0.0-7.0"
	},
	{
		"responseRadians": 0.6515871859228575,
		"targetRadians": 0.4742324526278433,
		"rt": 29022.19999998808,
		"isRelevant": true,
		"trial_type": "spatial-orientation",
		"trial_index": 8,
		"time_elapsed": 67619,
		"internal_node_id": "0.0-8.0"
	},
	{
		"responseRadians": 1.8575417309268383,
		"targetRadians": 1.624119345987489,
		"rt": 11895.100000023842,
		"isRelevant": true,
		"trial_type": "spatial-orientation",
		"trial_index": 9,
		"time_elapsed": 80530,
		"internal_node_id": "0.0-9.0"
	},
	{
		"responseRadians": 2.1282274183708374,
		"targetRadians": 1.898504206311071,
		"rt": 5093,
		"isRelevant": true,
		"trial_type": "spatial-orientation",
		"trial_index": 10,
		"time_elapsed": 86638,
		"internal_node_id": "0.0-10.0"
	},
	{
		"responseRadians": -0.5963776171121119,
		"targetRadians": -0.44595476693421093,
		"rt": 15191.699999988079,
		"isRelevant": true,
		"trial_type": "spatial-orientation",
		"trial_index": 11,
		"time_elapsed": 102831,
		"internal_node_id": "0.0-11.0"
	},
	{
		"responseRadians": 2.440570797615816,
		"targetRadians": 1.9104973713779634,
		"rt": 10183.100000023842,
		"isRelevant": true,
		"trial_type": "spatial-orientation",
		"trial_index": 12,
		"time_elapsed": 114029,
		"internal_node_id": "0.0-12.0"
	},
	{
		"responseRadians": -2.4235769860357212,
		"targetRadians": -2.492252689052089,
		"rt": 12247.900000035763,
		"isRelevant": true,
		"trial_type": "spatial-orientation",
		"trial_index": 13,
		"time_elapsed": 127291,
		"internal_node_id": "0.0-13.0"
	},
	{
		"responseRadians": -2.6933284463695824,
		"targetRadians": -2.6691413797901933,
		"rt": 17273.700000047684,
		"isRelevant": true,
		"trial_type": "spatial-orientation",
		"trial_index": 14,
		"time_elapsed": 145566,
		"internal_node_id": "0.0-14.0"
	},
	{
		"responseRadians": 1.6710508023004722,
		"targetRadians": 1.6318939858047552,
		"rt": 24800.400000035763,
		"isRelevant": true,
		"trial_type": "spatial-orientation",
		"trial_index": 15,
		"time_elapsed": 171374,
		"internal_node_id": "0.0-15.0"
	},
	{
		"responseRadians": 0.8396085628721117,
		"targetRadians": 0.7103112782964007,
		"rt": 5384,
		"isRelevant": true,
		"trial_type": "spatial-orientation",
		"trial_index": 16,
		"time_elapsed": 177767,
		"internal_node_id": "0.0-16.0"
	},
	{
		"responseRadians": -2.862451951889799,
		"targetRadians": -2.92541464355029,
		"rt": 8128.399999976158,
		"isRelevant": true,
		"trial_type": "spatial-orientation",
		"trial_index": 17,
		"time_elapsed": 186903,
		"internal_node_id": "0.0-17.0"
	},
	{
		"responseRadians": -1.1949725377262421,
		"targetRadians": -1.5920697128189578,
		"rt": 14770,
		"isRelevant": true,
		"trial_type": "spatial-orientation",
		"trial_index": 18,
		"time_elapsed": 202686,
		"internal_node_id": "0.0-18.0"
	}
]
